,trial_type,trial_index,time_elapsed,subject,study_id,condition,rt,url,view_history,response,question_order,success,timeout,failed_images,failed_audio,failed_video,filename,task,subj_id,label1,label2,mixtureCoeff,id1,id2
0,pavlovia,0,1484,71ktrmpcv3we1b7,62a7a6baf839fe2d4207b124,2,,,,,,,,,,,,,,,,,,
1,external-html,1,12147,71ktrmpcv3we1b7,62a7a6baf839fe2d4207b124,2,10509.5,consent.html,,,,,,,,,,,,,,,,
2,instructions,2,97061,71ktrmpcv3we1b7,62a7a6baf839fe2d4207b124,2,84915.80000007153,,"[{""page_index"":0,""viewing_time"":5713.200000047684},{""page_index"":1,""viewing_time"":3316.2999999523163},{""page_index"":2,""viewing_time"":20183.400000095367},{""page_index"":3,""viewing_time"":10949.899999976158},{""page_index"":4,""viewing_time"":16467.5},{""page_index"":5,""viewing_time"":13216.899999976158},{""page_index"":6,""viewing_time"":5716.600000023842},{""page_index"":7,""viewing_time"":6733.600000023842},{""page_index"":8,""viewing_time"":2616.7999999523163}]",,,,,,,,,,,,,,,
3,survey-multi-choice,3,108295,71ktrmpcv3we1b7,62a7a6baf839fe2d4207b124,2,11230.200000047684,,,"{""Q0"":""The most likely category, or categories, of an image and the associated probability of the selected categories."",""Q1"":""100 crowdsourced workers.""}","[0,1]",,,,,,,,,,,,,
4,instructions,4,110277,71ktrmpcv3we1b7,62a7a6baf839fe2d4207b124,2,1979.5,,"[{""page_index"":0,""viewing_time"":1978.8999999761581}]",,,,,,,,,,,,,,,
5,preload,5,111953,71ktrmpcv3we1b7,62a7a6baf839fe2d4207b124,2,,,,,,True,False,[],[],[],,,,,,,,
6,survey-html-form,6,190645,71ktrmpcv3we1b7,62a7a6baf839fe2d4207b124,2,78690.79999995232,,,"{""classSelect"":""mostProbAirplane"",""prob"":""60"",""classSelect2"":""secondProbFrog"",""prob2"":""20"",""improbClassSelectTruck"":""1"",""improbClassSelectDeer"":""1"",""improbClassSelectDog"":""1"",""improbClassSelectCat"":""1"",""improbClassSelectHorse"":""1""}",,,,,,,mixed_0.75_Airplane_3497_Ship_8913.png,spec_conf,,Airplane,Ship,0.75,3497.0,8913.0
7,survey-html-form,7,250494,71ktrmpcv3we1b7,62a7a6baf839fe2d4207b124,2,59846.0,,,"{""classSelect"":""mostProbHorse"",""prob"":""100"",""classSelect2"":""secondProbNo"",""prob2"":"""",""improbClassSelectFrog"":""1"",""improbClassSelectBird"":""1"",""improbClassSelectAirplane"":""1"",""improbClassSelectTruck"":""1"",""improbClassSelectShip"":""1"",""improbClassSelectAutomobile"":""1"",""improbClassSelectCat"":""1""}",,,,,,,mixed_0.5_Horse_3327_Ship_9834.png,spec_conf,,Horse,Ship,0.5,3327.0,9834.0
8,survey-html-form,8,296628,71ktrmpcv3we1b7,62a7a6baf839fe2d4207b124,2,46129.70000004768,,,"{""classSelect"":""mostProbShip"",""prob"":""75"",""classSelect2"":""secondProbTruck"",""prob2"":""25"",""improbClassSelectFrog"":""1"",""improbClassSelectBird"":""1"",""improbClassSelectDeer"":""1"",""improbClassSelectDog"":""1"",""improbClassSelectCat"":""1"",""improbClassSelectHorse"":""1""}",,,,,,,mixed_0.75_Ship_8441_Truck_5521.png,spec_conf,,Ship,Truck,0.75,8441.0,5521.0
9,survey-html-form,9,355726,71ktrmpcv3we1b7,62a7a6baf839fe2d4207b124,2,59096.0,,,"{""classSelect"":""mostProbAirplane"",""prob"":""50"",""classSelect2"":""secondProbBird"",""prob2"":""20"",""improbClassSelectTruck"":""1"",""improbClassSelectDeer"":""1"",""improbClassSelectDog"":""1"",""improbClassSelectShip"":""1"",""improbClassSelectAutomobile"":""1"",""improbClassSelectHorse"":""1""}",,,,,,,mixed_0.75_Frog_5446_Ship_2896.png,spec_conf,,Frog,Ship,0.75,5446.0,2896.0
10,survey-html-form,10,403176,71ktrmpcv3we1b7,62a7a6baf839fe2d4207b124,2,47445.79999995232,,,"{""classSelect"":""mostProbAutomobile"",""prob"":""90"",""classSelect2"":""secondProbTruck"",""prob2"":""10"",""improbClassSelectFrog"":""1"",""improbClassSelectBird"":""1"",""improbClassSelectAirplane"":""1"",""improbClassSelectDeer"":""1"",""improbClassSelectDog"":""1"",""improbClassSelectShip"":""1"",""improbClassSelectCat"":""1"",""improbClassSelectHorse"":""1""}",,,,,,,mixed_0.75_Automobile_2813_Truck_8727.png,spec_conf,,Automobile,Truck,0.75,2813.0,8727.0
11,survey-html-form,11,442359,71ktrmpcv3we1b7,62a7a6baf839fe2d4207b124,2,39179.70000004768,,,"{""classSelect"":""mostProbCat"",""prob"":""95"",""classSelect2"":""secondProbDog"",""prob2"":""5"",""improbClassSelectFrog"":""1"",""improbClassSelectBird"":""1"",""improbClassSelectAirplane"":""1"",""improbClassSelectTruck"":""1"",""improbClassSelectDeer"":""1"",""improbClassSelectShip"":""1"",""improbClassSelectAutomobile"":""1"",""improbClassSelectHorse"":""1""}",,,,,,,mixed_0.25_Airplane_3680_Cat_7174.png,spec_conf,,Airplane,Cat,0.25,3680.0,7174.0
12,survey-html-form,12,479726,71ktrmpcv3we1b7,62a7a6baf839fe2d4207b124,2,37363.20000004768,,,"{""classSelect"":""mostProbBird"",""prob"":""90"",""classSelect2"":""secondProbDeer"",""prob2"":""10"",""improbClassSelectFrog"":""1"",""improbClassSelectAirplane"":""1"",""improbClassSelectTruck"":""1"",""improbClassSelectDog"":""1"",""improbClassSelectShip"":""1"",""improbClassSelectAutomobile"":""1"",""improbClassSelectCat"":""1"",""improbClassSelectHorse"":""1""}",,,,,,,mixed_0.5_Bird_2199_Dog_6782.png,spec_conf,,Bird,Dog,0.5,2199.0,6782.0
13,survey-html-form,13,512441,71ktrmpcv3we1b7,62a7a6baf839fe2d4207b124,2,32712.29999995232,,,"{""classSelect"":""mostProbTruck"",""prob"":""90"",""classSelect2"":""secondProbAutomobile"",""prob2"":""10"",""improbClassSelectFrog"":""1"",""improbClassSelectBird"":""1"",""improbClassSelectAirplane"":""1"",""improbClassSelectDeer"":""1"",""improbClassSelectDog"":""1"",""improbClassSelectShip"":""1"",""improbClassSelectCat"":""1"",""improbClassSelectHorse"":""1""}",,,,,,,mixed_0.75_Automobile_1797_Dog_8682.png,spec_conf,,Automobile,Dog,0.75,1797.0,8682.0
14,survey-html-form,14,540191,71ktrmpcv3we1b7,62a7a6baf839fe2d4207b124,2,27746.0,,,"{""classSelect"":""mostProbFrog"",""prob"":""80"",""classSelect2"":""secondProbBird"",""prob2"":""20"",""improbClassSelectAirplane"":""1"",""improbClassSelectTruck"":""1"",""improbClassSelectDeer"":""1"",""improbClassSelectDog"":""1"",""improbClassSelectShip"":""1"",""improbClassSelectAutomobile"":""1"",""improbClassSelectCat"":""1"",""improbClassSelectHorse"":""1""}",,,,,,,mixed_0.5_Deer_3962_Frog_5761.png,spec_conf,,Deer,Frog,0.5,3962.0,5761.0
15,survey-html-form,15,582807,71ktrmpcv3we1b7,62a7a6baf839fe2d4207b124,2,42612.79999995232,,,"{""classSelect"":""mostProbFrog"",""prob"":""85"",""classSelect2"":""secondProbCat"",""prob2"":""15"",""improbClassSelectAirplane"":""1"",""improbClassSelectTruck"":""1"",""improbClassSelectDeer"":""1"",""improbClassSelectShip"":""1"",""improbClassSelectAutomobile"":""1"",""improbClassSelectHorse"":""1""}",,,,,,,mixed_0.75_Frog_5175_Truck_6963.png,spec_conf,,Frog,Truck,0.75,5175.0,6963.0
16,survey-html-form,16,606724,71ktrmpcv3we1b7,62a7a6baf839fe2d4207b124,2,23912.700000047684,,,"{""classSelect"":""mostProbTruck"",""prob"":""100"",""classSelect2"":""secondProbNo"",""prob2"":"""",""improbClassSelectFrog"":""1"",""improbClassSelectBird"":""1"",""improbClassSelectAirplane"":""1"",""improbClassSelectDeer"":""1"",""improbClassSelectDog"":""1"",""improbClassSelectShip"":""1"",""improbClassSelectAutomobile"":""1"",""improbClassSelectCat"":""1"",""improbClassSelectHorse"":""1""}",,,,,,,mixed_0.25_Frog_9456_Truck_4768.png,spec_conf,,Frog,Truck,0.25,9456.0,4768.0
17,survey-html-form,17,627257,71ktrmpcv3we1b7,62a7a6baf839fe2d4207b124,2,20528.79999995232,,,"{""classSelect"":""mostProbHorse"",""prob"":""100"",""classSelect2"":""secondProbNo"",""prob2"":"""",""improbClassSelectFrog"":""1"",""improbClassSelectBird"":""1"",""improbClassSelectAirplane"":""1"",""improbClassSelectTruck"":""1"",""improbClassSelectDeer"":""1"",""improbClassSelectDog"":""1"",""improbClassSelectShip"":""1"",""improbClassSelectAutomobile"":""1"",""improbClassSelectCat"":""1""}",,,,,,,mixed_0.25_Automobile_2838_Horse_2062.png,spec_conf,,Automobile,Horse,0.25,2838.0,2062.0
18,survey-html-form,18,646540,71ktrmpcv3we1b7,62a7a6baf839fe2d4207b124,2,19280.39999997616,,,"{""classSelect"":""mostProbHorse"",""prob"":""100"",""classSelect2"":""secondProbNo"",""prob2"":"""",""improbClassSelectFrog"":""1"",""improbClassSelectBird"":""1"",""improbClassSelectAirplane"":""1"",""improbClassSelectTruck"":""1"",""improbClassSelectDeer"":""1"",""improbClassSelectDog"":""1"",""improbClassSelectShip"":""1"",""improbClassSelectAutomobile"":""1"",""improbClassSelectCat"":""1""}",,,,,,,mixed_0.25_Frog_4082_Horse_9570.png,spec_conf,,Frog,Horse,0.25,4082.0,9570.0
19,survey-html-form,19,676474,71ktrmpcv3we1b7,62a7a6baf839fe2d4207b124,2,29929.79999995232,,,"{""classSelect"":""mostProbCat"",""prob"":""95"",""classSelect2"":""secondProbDog"",""prob2"":""5"",""improbClassSelectFrog"":""1"",""improbClassSelectBird"":""1"",""improbClassSelectAirplane"":""1"",""improbClassSelectTruck"":""1"",""improbClassSelectDeer"":""1"",""improbClassSelectShip"":""1"",""improbClassSelectAutomobile"":""1"",""improbClassSelectHorse"":""1""}",,,,,,,mixed_0.5_Cat_5200_Deer_4828.png,spec_conf,,Cat,Deer,0.5,5200.0,4828.0
20,survey-html-form,20,703023,71ktrmpcv3we1b7,62a7a6baf839fe2d4207b124,2,26545.599999904636,,,"{""classSelect"":""mostProbDog"",""prob"":""95"",""classSelect2"":""secondProbCat"",""prob2"":""5"",""improbClassSelectFrog"":""1"",""improbClassSelectBird"":""1"",""improbClassSelectAirplane"":""1"",""improbClassSelectTruck"":""1"",""improbClassSelectDeer"":""1"",""improbClassSelectShip"":""1"",""improbClassSelectAutomobile"":""1"",""improbClassSelectHorse"":""1""}",,,,,,,mixed_0.25_Airplane_7428_Dog_5504.png,spec_conf,,Airplane,Dog,0.25,7428.0,5504.0
21,survey-html-form,21,747506,71ktrmpcv3we1b7,62a7a6baf839fe2d4207b124,2,44479.39999997616,,,"{""classSelect"":""mostProbTruck"",""prob"":""97"",""classSelect2"":""secondProbAutomobile"",""prob2"":""3"",""improbClassSelectFrog"":""1"",""improbClassSelectBird"":""1"",""improbClassSelectAirplane"":""1"",""improbClassSelectTruck"":""1"",""improbClassSelectDeer"":""1"",""improbClassSelectDog"":""1"",""improbClassSelectShip"":""1"",""improbClassSelectCat"":""1"",""improbClassSelectHorse"":""1""}",,,,,,,mixed_0.5_Ship_1004_Truck_5627.png,spec_conf,,Ship,Truck,0.5,1004.0,5627.0
22,survey-html-form,22,773072,71ktrmpcv3we1b7,62a7a6baf839fe2d4207b124,2,25562.10000002384,,,"{""classSelect"":""mostProbTruck"",""prob"":""100"",""classSelect2"":""secondProbNo"",""prob2"":"""",""improbClassSelectFrog"":""1"",""improbClassSelectBird"":""1"",""improbClassSelectAirplane"":""1"",""improbClassSelectDeer"":""1"",""improbClassSelectDog"":""1"",""improbClassSelectShip"":""1"",""improbClassSelectAutomobile"":""1"",""improbClassSelectCat"":""1"",""improbClassSelectHorse"":""1""}",,,,,,,mixed_0.25_Cat_4346_Truck_4932.png,spec_conf,,Cat,Truck,0.25,4346.0,4932.0
23,survey-html-form,23,793356,71ktrmpcv3we1b7,62a7a6baf839fe2d4207b124,2,20280.5,,,"{""classSelect"":""mostProbDog"",""prob"":""99"",""classSelect2"":""secondProbCat"",""prob2"":""1"",""improbClassSelectFrog"":""1"",""improbClassSelectBird"":""1"",""improbClassSelectAirplane"":""1"",""improbClassSelectTruck"":""1"",""improbClassSelectDeer"":""1"",""improbClassSelectShip"":""1"",""improbClassSelectAutomobile"":""1"",""improbClassSelectHorse"":""1""}",,,,,,,mixed_0.5_Airplane_74_Dog_3610.png,spec_conf,,Airplane,Dog,0.5,74.0,3610.0
24,survey-html-form,24,810505,71ktrmpcv3we1b7,62a7a6baf839fe2d4207b124,2,17144.600000023842,,,"{""classSelect"":""mostProbTruck"",""prob"":""100"",""classSelect2"":""secondProbNo"",""prob2"":"""",""improbClassSelectFrog"":""1"",""improbClassSelectBird"":""1"",""improbClassSelectAirplane"":""1"",""improbClassSelectDeer"":""1"",""improbClassSelectDog"":""1"",""improbClassSelectShip"":""1"",""improbClassSelectAutomobile"":""1"",""improbClassSelectCat"":""1"",""improbClassSelectHorse"":""1""}",,,,,,,mixed_0.25_Frog_5334_Truck_2174.png,spec_conf,,Frog,Truck,0.25,5334.0,2174.0
25,survey-html-form,25,833205,71ktrmpcv3we1b7,62a7a6baf839fe2d4207b124,2,22696.5,,,"{""classSelect"":""mostProbDeer"",""prob"":""95"",""classSelect2"":""secondProbDog"",""prob2"":""5"",""improbClassSelectFrog"":""1"",""improbClassSelectBird"":""1"",""improbClassSelectAirplane"":""1"",""improbClassSelectTruck"":""1"",""improbClassSelectShip"":""1"",""improbClassSelectAutomobile"":""1"",""improbClassSelectCat"":""1"",""improbClassSelectHorse"":""1""}",,,,,,,mixed_0.5_Airplane_4313_Horse_9184.png,spec_conf,,Airplane,Horse,0.5,4313.0,9184.0
26,survey-html-form,26,874538,71ktrmpcv3we1b7,62a7a6baf839fe2d4207b124,2,41329.70000004768,,,"{""classSelect"":""mostProbBird"",""prob"":""50"",""classSelect2"":""secondProbHorse"",""prob2"":""50"",""improbClassSelectFrog"":""1"",""improbClassSelectAirplane"":""1"",""improbClassSelectTruck"":""1"",""improbClassSelectDeer"":""1"",""improbClassSelectShip"":""1"",""improbClassSelectAutomobile"":""1""}",,,,,,,mixed_0.5_Bird_755_Horse_3890.png,spec_conf,,Bird,Horse,0.5,755.0,3890.0
27,survey-html-form,27,895854,71ktrmpcv3we1b7,62a7a6baf839fe2d4207b124,2,21311.89999997616,,,"{""classSelect"":""mostProbAutomobile"",""prob"":""90"",""classSelect2"":""secondProbTruck"",""prob2"":""10"",""improbClassSelectFrog"":""1"",""improbClassSelectBird"":""1"",""improbClassSelectAirplane"":""1"",""improbClassSelectDeer"":""1"",""improbClassSelectDog"":""1"",""improbClassSelectShip"":""1"",""improbClassSelectCat"":""1"",""improbClassSelectHorse"":""1""}",,,,,,,mixed_0.5_Automobile_2645_Dog_4764.png,spec_conf,,Automobile,Dog,0.5,2645.0,4764.0
28,survey-html-form,28,929188,71ktrmpcv3we1b7,62a7a6baf839fe2d4207b124,2,33330.29999995232,,,"{""classSelect"":""mostProbAutomobile"",""prob"":""60"",""classSelect2"":""secondProbTruck"",""prob2"":""40"",""improbClassSelectFrog"":""1"",""improbClassSelectBird"":""1"",""improbClassSelectDeer"":""1"",""improbClassSelectDog"":""1"",""improbClassSelectCat"":""1"",""improbClassSelectHorse"":""1""}",,,,,,,mixed_0.5_Automobile_9373_Horse_2006.png,spec_conf,,Automobile,Horse,0.5,9373.0,2006.0
29,survey-html-form,29,945303,71ktrmpcv3we1b7,62a7a6baf839fe2d4207b124,2,16111.799999952316,,,"{""classSelect"":""mostProbHorse"",""prob"":""100"",""classSelect2"":""secondProbNo"",""prob2"":"""",""improbClassSelectFrog"":""1"",""improbClassSelectBird"":""1"",""improbClassSelectAirplane"":""1"",""improbClassSelectTruck"":""1"",""improbClassSelectDeer"":""1"",""improbClassSelectDog"":""1"",""improbClassSelectShip"":""1"",""improbClassSelectAutomobile"":""1"",""improbClassSelectCat"":""1""}",,,,,,,mixed_0.25_Cat_9722_Horse_60.png,spec_conf,,Cat,Horse,0.25,9722.0,60.0
30,survey-html-form,30,991603,71ktrmpcv3we1b7,62a7a6baf839fe2d4207b124,2,46297.19999992848,,,"{""classSelect"":""mostProbDog"",""prob"":""65"",""classSelect2"":""secondProbCat"",""prob2"":""35"",""improbClassSelectFrog"":""1"",""improbClassSelectBird"":""1"",""improbClassSelectAirplane"":""1"",""improbClassSelectTruck"":""1"",""improbClassSelectDeer"":""1"",""improbClassSelectShip"":""1"",""improbClassSelectAutomobile"":""1"",""improbClassSelectHorse"":""1""}",,,,,,,mixed_0.5_Cat_1603_Dog_9798.png,spec_conf,,Cat,Dog,0.5,1603.0,9798.0
31,survey-html-form,31,1017120,71ktrmpcv3we1b7,62a7a6baf839fe2d4207b124,2,25512.79999995232,,,"{""classSelect"":""mostProbCat"",""prob"":""100"",""classSelect2"":""secondProbNo"",""prob2"":"""",""improbClassSelectFrog"":""1"",""improbClassSelectBird"":""1"",""improbClassSelectAirplane"":""1"",""improbClassSelectTruck"":""1"",""improbClassSelectDeer"":""1"",""improbClassSelectDog"":""1"",""improbClassSelectShip"":""1"",""improbClassSelectAutomobile"":""1"",""improbClassSelectHorse"":""1""}",,,,,,,mixed_0.25_Airplane_3680_Cat_7174.png,rerun_spec_conf,,Airplane,Cat,0.25,3680.0,7174.0
32,survey-html-form,32,1035869,71ktrmpcv3we1b7,62a7a6baf839fe2d4207b124,2,18745.200000047684,,,"{""classSelect"":""mostProbTruck"",""prob"":""100"",""classSelect2"":""secondProbNo"",""prob2"":"""",""improbClassSelectFrog"":""1"",""improbClassSelectBird"":""1"",""improbClassSelectAirplane"":""1"",""improbClassSelectDeer"":""1"",""improbClassSelectDog"":""1"",""improbClassSelectShip"":""1"",""improbClassSelectAutomobile"":""1"",""improbClassSelectCat"":""1"",""improbClassSelectHorse"":""1""}",,,,,,,mixed_0.25_Frog_9456_Truck_4768.png,rerun_spec_conf,,Frog,Truck,0.25,9456.0,4768.0
33,survey-text,33,1119601,71ktrmpcv3we1b7,62a7a6baf839fe2d4207b124,2,83725.60000002384,,,"{""Q0"":""10"",""Q1"":""3"",""Q2"":""I don't think so. But maybe in cases where I could make out two distinct items I tried to pick the one more likely to be seen."",""Q3"":""No"",""Q4"":""Ears (especially with cat and deer). Wheels. Height of vehicles."",""Q5"":""None, thank you.""}",,,,,,,,,,,,,,
34,pavlovia,0,1493,rsff1ssyomgyffd,62a7a6baf839fe2d4207b124,1,,,,,,,,,,,,,,,,,,
35,external-html,1,5598,rsff1ssyomgyffd,62a7a6baf839fe2d4207b124,1,3899.3000000000175,consent.html,,,,,,,,,,,,,,,,
36,instructions,2,49800,rsff1ssyomgyffd,62a7a6baf839fe2d4207b124,1,44197.90000000002,,"[{""page_index"":0,""viewing_time"":35626.30000000002},{""page_index"":1,""viewing_time"":1394.7999999999884},{""page_index"":2,""viewing_time"":1425},{""page_index"":3,""viewing_time"":816.3000000000175},{""page_index"":4,""viewing_time"":660.2999999999884},{""page_index"":5,""viewing_time"":1343.1000000000058},{""page_index"":6,""viewing_time"":941.3999999999942},{""page_index"":7,""viewing_time"":1021},{""page_index"":8,""viewing_time"":968}]",,,,,,,,,,,,,,,
37,survey-multi-choice,3,56204,rsff1ssyomgyffd,62a7a6baf839fe2d4207b124,1,6398.600000000006,,,"{""Q0"":""The most likely category, or categories, of an image and the associated probability of the selected categories."",""Q1"":""100 crowdsourced workers.""}","[0,1]",,,,,,,,,,,,,
38,instructions,4,68422,rsff1ssyomgyffd,62a7a6baf839fe2d4207b124,1,12210.699999999984,,"[{""page_index"":0,""viewing_time"":12209.899999999994}]",,,,,,,,,,,,,,,
39,preload,5,71630,rsff1ssyomgyffd,62a7a6baf839fe2d4207b124,1,,,,,,True,False,[],[],[],,,,,,,,
40,survey-html-form,6,862874,rsff1ssyomgyffd,62a7a6baf839fe2d4207b124,1,791229.0999999999,,,"{""classSelect"":""mostProbCat"",""prob"":""90"",""classSelect2"":""secondProbFrog"",""prob2"":""70"",""improbClassSelectTruck"":""1"",""improbClassSelectHorse"":""1"",""improbClassSelectShip"":""1"",""improbClassSelectDeer"":""1"",""improbClassSelectBird"":""1""}",,,,,,,mixed_0.25_Dog_4241_Horse_9140.png,spec_conf,,Dog,Horse,0.25,4241.0,9140.0
41,survey-html-form,7,1034905,rsff1ssyomgyffd,62a7a6baf839fe2d4207b124,1,172014.2999999998,,,"{""classSelect"":""mostProbHorse"",""prob"":""100"",""classSelect2"":""secondProbNo"",""prob2"":""100"",""improbClassSelectAutomobile"":""1"",""improbClassSelectTruck"":""1"",""improbClassSelectAirplane"":""1"",""improbClassSelectCat"":""1"",""improbClassSelectShip"":""1"",""improbClassSelectFrog"":""1"",""improbClassSelectDeer"":""1"",""improbClassSelectDog"":""1"",""improbClassSelectBird"":""1""}",,,,,,,mixed_0.5_Dog_7433_Horse_410.png,spec_conf,,Dog,Horse,0.5,7433.0,410.0
42,survey-html-form,8,1102474,rsff1ssyomgyffd,62a7a6baf839fe2d4207b124,1,67552.30000000016,,,"{""classSelect"":""mostProbBird"",""prob"":""100"",""classSelect2"":""secondProbNo"",""prob2"":""70"",""improbClassSelectAutomobile"":""1"",""improbClassSelectTruck"":""1"",""improbClassSelectAirplane"":""1"",""improbClassSelectHorse"":""1"",""improbClassSelectCat"":""1"",""improbClassSelectShip"":""1"",""improbClassSelectFrog"":""1"",""improbClassSelectDeer"":""1"",""improbClassSelectDog"":""1""}",,,,,,,mixed_0.5_Bird_4535_Cat_4652.png,spec_conf,,Bird,Cat,0.5,4535.0,4652.0
43,survey-html-form,9,1133374,rsff1ssyomgyffd,62a7a6baf839fe2d4207b124,1,30882.0,,,"{""classSelect"":""mostProbFrog"",""prob"":""100"",""classSelect2"":""secondProbNo"",""prob2"":"""",""improbClassSelectAutomobile"":""1"",""improbClassSelectTruck"":""1"",""improbClassSelectAirplane"":""1"",""improbClassSelectHorse"":""1"",""improbClassSelectCat"":""1"",""improbClassSelectShip"":""1"",""improbClassSelectDeer"":""1"",""improbClassSelectDog"":""1"",""improbClassSelectBird"":""1""}",,,,,,,mixed_0.5_Airplane_1823_Automobile_9694.png,spec_conf,,Airplane,Automobile,0.5,1823.0,9694.0
44,survey-html-form,10,1181797,rsff1ssyomgyffd,62a7a6baf839fe2d4207b124,1,48406.59999999986,,,"{""classSelect"":""mostProbAirplane"",""prob"":""100"",""classSelect2"":""secondProbNo"",""prob2"":"""",""improbClassSelectAutomobile"":""1"",""improbClassSelectTruck"":""1"",""improbClassSelectHorse"":""1"",""improbClassSelectCat"":""1"",""improbClassSelectShip"":""1"",""improbClassSelectFrog"":""1"",""improbClassSelectDeer"":""1"",""improbClassSelectDog"":""1"",""improbClassSelectBird"":""1""}",,,,,,,mixed_0.5_Airplane_2569_Cat_8072.png,spec_conf,,Airplane,Cat,0.5,2569.0,8072.0
45,survey-html-form,11,1203756,rsff1ssyomgyffd,62a7a6baf839fe2d4207b124,1,21946.09999999986,,,"{""classSelect"":""mostProbCat"",""prob"":""100"",""classSelect2"":""secondProbNo"",""prob2"":"""",""improbClassSelectAutomobile"":""1"",""improbClassSelectTruck"":""1"",""improbClassSelectAirplane"":""1"",""improbClassSelectHorse"":""1"",""improbClassSelectShip"":""1"",""improbClassSelectFrog"":""1"",""improbClassSelectDeer"":""1"",""improbClassSelectDog"":""1"",""improbClassSelectBird"":""1""}",,,,,,,mixed_0.25_Bird_2774_Ship_5249.png,spec_conf,,Bird,Ship,0.25,2774.0,5249.0
46,survey-html-form,12,1233041,rsff1ssyomgyffd,62a7a6baf839fe2d4207b124,1,29270.100000000093,,,"{""classSelect"":""mostProbBird"",""prob"":""100"",""classSelect2"":""secondProbNo"",""prob2"":"""",""improbClassSelectAutomobile"":""1"",""improbClassSelectTruck"":""1"",""improbClassSelectAirplane"":""1"",""improbClassSelectHorse"":""1"",""improbClassSelectCat"":""1"",""improbClassSelectShip"":""1"",""improbClassSelectFrog"":""1"",""improbClassSelectDeer"":""1"",""improbClassSelectDog"":""1""}",,,,,,,mixed_0.75_Cat_8023_Dog_4988.png,spec_conf,,Cat,Dog,0.75,8023.0,4988.0
47,survey-html-form,13,1246358,rsff1ssyomgyffd,62a7a6baf839fe2d4207b124,1,13303.899999999909,,,"{""classSelect"":""mostProbFrog"",""prob"":""100"",""classSelect2"":""secondProbNo"",""prob2"":"""",""improbClassSelectAutomobile"":""1"",""improbClassSelectTruck"":""1"",""improbClassSelectAirplane"":""1"",""improbClassSelectHorse"":""1"",""improbClassSelectCat"":""1"",""improbClassSelectShip"":""1"",""improbClassSelectDeer"":""1"",""improbClassSelectDog"":""1"",""improbClassSelectBird"":""1""}",,,,,,,mixed_0.5_Bird_1257_Ship_4709.png,spec_conf,,Bird,Ship,0.5,1257.0,4709.0
48,survey-html-form,14,1544131,rsff1ssyomgyffd,62a7a6baf839fe2d4207b124,1,297757.0,,,"{""classSelect"":""mostProbAutomobile"",""prob"":""100"",""classSelect2"":""secondProbNo"",""prob2"":"""",""improbClassSelectTruck"":""1"",""improbClassSelectAirplane"":""1"",""improbClassSelectHorse"":""1"",""improbClassSelectCat"":""1"",""improbClassSelectShip"":""1"",""improbClassSelectFrog"":""1"",""improbClassSelectDeer"":""1"",""improbClassSelectDog"":""1"",""improbClassSelectBird"":""1""}",,,,,,,mixed_0.5_Frog_4161_Truck_1439.png,spec_conf,,Frog,Truck,0.5,4161.0,1439.0
49,survey-html-form,15,1562047,rsff1ssyomgyffd,62a7a6baf839fe2d4207b124,1,17896.399999999907,,,"{""classSelect"":""mostProbBird"",""prob"":""100"",""classSelect2"":""secondProbNo"",""prob2"":"""",""improbClassSelectAutomobile"":""1"",""improbClassSelectTruck"":""1"",""improbClassSelectAirplane"":""1"",""improbClassSelectHorse"":""1"",""improbClassSelectCat"":""1"",""improbClassSelectShip"":""1"",""improbClassSelectFrog"":""1"",""improbClassSelectDeer"":""1"",""improbClassSelectDog"":""1""}",,,,,,,mixed_0.75_Bird_9831_Dog_2372.png,spec_conf,,Bird,Dog,0.75,9831.0,2372.0
50,survey-html-form,16,1630114,rsff1ssyomgyffd,62a7a6baf839fe2d4207b124,1,68050.8999999999,,,"{""classSelect"":""mostProbShip"",""prob"":""100"",""classSelect2"":""secondProbNo"",""prob2"":"""",""improbClassSelectAutomobile"":""1"",""improbClassSelectTruck"":""1"",""improbClassSelectAirplane"":""1"",""improbClassSelectHorse"":""1"",""improbClassSelectCat"":""1"",""improbClassSelectFrog"":""1"",""improbClassSelectDeer"":""1"",""improbClassSelectDog"":""1"",""improbClassSelectBird"":""1""}",,,,,,,mixed_0.25_Airplane_3497_Ship_8913.png,spec_conf,,Airplane,Ship,0.25,3497.0,8913.0
51,survey-html-form,17,1650675,rsff1ssyomgyffd,62a7a6baf839fe2d4207b124,1,20546.100000000093,,,"{""classSelect"":""mostProbAutomobile"",""prob"":""100"",""classSelect2"":""secondProbNo"",""prob2"":"""",""improbClassSelectTruck"":""1"",""improbClassSelectAirplane"":""1"",""improbClassSelectHorse"":""1"",""improbClassSelectCat"":""1"",""improbClassSelectShip"":""1"",""improbClassSelectFrog"":""1"",""improbClassSelectDeer"":""1"",""improbClassSelectDog"":""1"",""improbClassSelectBird"":""1""}",,,,,,,mixed_0.5_Airplane_8777_Truck_139.png,spec_conf,,Airplane,Truck,0.5,8777.0,139.0
52,survey-html-form,18,1667915,rsff1ssyomgyffd,62a7a6baf839fe2d4207b124,1,17224.199999999953,,,"{""classSelect"":""mostProbAutomobile"",""prob"":""100"",""classSelect2"":""secondProbNo"",""prob2"":"""",""improbClassSelectTruck"":""1"",""improbClassSelectAirplane"":""1"",""improbClassSelectHorse"":""1"",""improbClassSelectCat"":""1"",""improbClassSelectShip"":""1"",""improbClassSelectFrog"":""1"",""improbClassSelectDeer"":""1"",""improbClassSelectDog"":""1"",""improbClassSelectBird"":""1""}",,,,,,,mixed_0.5_Automobile_9916_Deer_718.png,spec_conf,,Automobile,Deer,0.5,9916.0,718.0
53,survey-html-form,19,1719999,rsff1ssyomgyffd,62a7a6baf839fe2d4207b124,1,52068.90000000014,,,"{""classSelect"":""mostProbAutomobile"",""prob"":""100"",""classSelect2"":""secondProbNo"",""prob2"":"""",""improbClassSelectTruck"":""1"",""improbClassSelectAirplane"":""1"",""improbClassSelectHorse"":""1"",""improbClassSelectCat"":""1"",""improbClassSelectShip"":""1"",""improbClassSelectFrog"":""1"",""improbClassSelectDeer"":""1"",""improbClassSelectDog"":""1"",""improbClassSelectBird"":""1""}",,,,,,,mixed_0.25_Bird_2977_Truck_626.png,spec_conf,,Bird,Truck,0.25,2977.0,626.0
54,survey-html-form,20,1769733,rsff1ssyomgyffd,62a7a6baf839fe2d4207b124,1,49724.60000000009,,,"{""classSelect"":""mostProbBird"",""prob"":""100"",""classSelect2"":""secondProbNo"",""prob2"":"""",""improbClassSelectAutomobile"":""1"",""improbClassSelectTruck"":""1"",""improbClassSelectAirplane"":""1"",""improbClassSelectHorse"":""1"",""improbClassSelectCat"":""1"",""improbClassSelectShip"":""1"",""improbClassSelectFrog"":""1"",""improbClassSelectDeer"":""1"",""improbClassSelectDog"":""1""}",,,,,,,mixed_0.75_Horse_5096_Truck_9312.png,spec_conf,,Horse,Truck,0.75,5096.0,9312.0
55,survey-html-form,21,1801446,rsff1ssyomgyffd,62a7a6baf839fe2d4207b124,1,31700.699999999957,,,"{""classSelect"":""mostProbBird"",""prob"":""100"",""classSelect2"":""secondProbNo"",""prob2"":"""",""improbClassSelectAutomobile"":""1"",""improbClassSelectTruck"":""1"",""improbClassSelectAirplane"":""1"",""improbClassSelectHorse"":""1"",""improbClassSelectCat"":""1"",""improbClassSelectShip"":""1"",""improbClassSelectFrog"":""1"",""improbClassSelectDeer"":""1"",""improbClassSelectDog"":""1""}",,,,,,,mixed_0.5_Bird_2856_Dog_5694.png,spec_conf,,Bird,Dog,0.5,2856.0,5694.0
56,survey-html-form,22,1815265,rsff1ssyomgyffd,62a7a6baf839fe2d4207b124,1,13805.700000000186,,,"{""classSelect"":""mostProbBird"",""prob"":""100"",""classSelect2"":""secondProbNo"",""prob2"":"""",""improbClassSelectAutomobile"":""1"",""improbClassSelectTruck"":""1"",""improbClassSelectAirplane"":""1"",""improbClassSelectHorse"":""1"",""improbClassSelectCat"":""1"",""improbClassSelectShip"":""1"",""improbClassSelectFrog"":""1"",""improbClassSelectDeer"":""1"",""improbClassSelectDog"":""1""}",,,,,,,mixed_0.5_Bird_5258_Frog_2549.png,spec_conf,,Bird,Frog,0.5,5258.0,2549.0
57,survey-html-form,23,1997041,rsff1ssyomgyffd,62a7a6baf839fe2d4207b124,1,181762.7999999998,,,"{""classSelect"":""mostProbAirplane"",""prob"":""100"",""classSelect2"":""secondProbNo"",""prob2"":"""",""improbClassSelectAutomobile"":""1"",""improbClassSelectTruck"":""1"",""improbClassSelectHorse"":""1"",""improbClassSelectCat"":""1"",""improbClassSelectShip"":""1"",""improbClassSelectFrog"":""1"",""improbClassSelectDeer"":""1"",""improbClassSelectDog"":""1"",""improbClassSelectBird"":""1""}",,,,,,,mixed_0.75_Horse_87_Truck_3409.png,spec_conf,,Horse,Truck,0.75,87.0,3409.0
58,survey-html-form,24,2065252,rsff1ssyomgyffd,62a7a6baf839fe2d4207b124,1,68195.29999999981,,,"{""classSelect"":""mostProbAutomobile"",""prob"":""100"",""classSelect2"":""secondProbNo"",""prob2"":"""",""improbClassSelectTruck"":""1"",""improbClassSelectAirplane"":""1"",""improbClassSelectHorse"":""1"",""improbClassSelectCat"":""1"",""improbClassSelectShip"":""1"",""improbClassSelectFrog"":""1"",""improbClassSelectDeer"":""1"",""improbClassSelectDog"":""1"",""improbClassSelectBird"":""1""}",,,,,,,mixed_0.25_Bird_7663_Truck_7547.png,spec_conf,,Bird,Truck,0.25,7663.0,7547.0
59,survey-html-form,25,2082894,rsff1ssyomgyffd,62a7a6baf839fe2d4207b124,1,17625.19999999972,,,"{""classSelect"":""mostProbFrog"",""prob"":""100"",""classSelect2"":""secondProbNo"",""prob2"":"""",""improbClassSelectAutomobile"":""1"",""improbClassSelectTruck"":""1"",""improbClassSelectAirplane"":""1"",""improbClassSelectHorse"":""1"",""improbClassSelectCat"":""1"",""improbClassSelectShip"":""1"",""improbClassSelectDeer"":""1"",""improbClassSelectDog"":""1"",""improbClassSelectBird"":""1""}",,,,,,,mixed_0.25_Airplane_8812_Bird_3076.png,spec_conf,,Airplane,Bird,0.25,8812.0,3076.0
60,survey-html-form,26,2377002,rsff1ssyomgyffd,62a7a6baf839fe2d4207b124,1,294092.3000000003,,,"{""classSelect"":""mostProbFrog"",""prob"":""100"",""classSelect2"":""secondProbNo"",""prob2"":"""",""improbClassSelectAutomobile"":""1"",""improbClassSelectTruck"":""1"",""improbClassSelectAirplane"":""1"",""improbClassSelectHorse"":""1"",""improbClassSelectCat"":""1"",""improbClassSelectShip"":""1"",""improbClassSelectDeer"":""1"",""improbClassSelectDog"":""1"",""improbClassSelectBird"":""1""}",,,,,,,mixed_0.25_Dog_1862_Frog_8273.png,spec_conf,,Dog,Frog,0.25,1862.0,8273.0
61,survey-html-form,27,2433050,rsff1ssyomgyffd,62a7a6baf839fe2d4207b124,1,56033.5,,,"{""classSelect"":""mostProbBird"",""prob"":""100"",""classSelect2"":""secondProbNo"",""prob2"":"""",""improbClassSelectAutomobile"":""1"",""improbClassSelectTruck"":""1"",""improbClassSelectAirplane"":""1"",""improbClassSelectHorse"":""1"",""improbClassSelectCat"":""1"",""improbClassSelectShip"":""1"",""improbClassSelectFrog"":""1"",""improbClassSelectDeer"":""1"",""improbClassSelectDog"":""1""}",,,,,,,mixed_0.75_Bird_7845_Dog_3424.png,spec_conf,,Bird,Dog,0.75,7845.0,3424.0
62,survey-html-form,28,2486669,rsff1ssyomgyffd,62a7a6baf839fe2d4207b124,1,53603.09999999963,,,"{""classSelect"":""mostProbDeer"",""prob"":""100"",""classSelect2"":""secondProbNo"",""prob2"":"""",""improbClassSelectAutomobile"":""1"",""improbClassSelectTruck"":""1"",""improbClassSelectAirplane"":""1"",""improbClassSelectHorse"":""1"",""improbClassSelectCat"":""1"",""improbClassSelectShip"":""1"",""improbClassSelectFrog"":""1"",""improbClassSelectDog"":""1"",""improbClassSelectBird"":""1""}",,,,,,,mixed_0.5_Deer_3203_Ship_3821.png,spec_conf,,Deer,Ship,0.5,3203.0,3821.0
63,survey-html-form,29,2584091,rsff1ssyomgyffd,62a7a6baf839fe2d4207b124,1,97406.2000000002,,,"{""classSelect"":""mostProbHorse"",""prob"":""100"",""classSelect2"":""secondProbNo"",""prob2"":"""",""improbClassSelectAutomobile"":""1"",""improbClassSelectTruck"":""1"",""improbClassSelectAirplane"":""1"",""improbClassSelectCat"":""1"",""improbClassSelectShip"":""1"",""improbClassSelectFrog"":""1"",""improbClassSelectDeer"":""1"",""improbClassSelectDog"":""1"",""improbClassSelectBird"":""1""}",,,,,,,mixed_0.5_Frog_3349_Horse_1560.png,spec_conf,,Frog,Horse,0.5,3349.0,1560.0
64,survey-html-form,30,2731424,rsff1ssyomgyffd,62a7a6baf839fe2d4207b124,1,147319.3999999999,,,"{""classSelect"":""mostProbAutomobile"",""prob"":""100"",""classSelect2"":""secondProbNo"",""prob2"":"""",""improbClassSelectTruck"":""1"",""improbClassSelectAirplane"":""1"",""improbClassSelectHorse"":""1"",""improbClassSelectCat"":""1"",""improbClassSelectShip"":""1"",""improbClassSelectFrog"":""1"",""improbClassSelectDeer"":""1"",""improbClassSelectDog"":""1"",""improbClassSelectBird"":""1""}",,,,,,,mixed_0.5_Airplane_237_Truck_7501.png,spec_conf,,Airplane,Truck,0.5,237.0,7501.0
65,survey-html-form,31,3052219,rsff1ssyomgyffd,62a7a6baf839fe2d4207b124,1,320779.5,,,"{""classSelect"":""mostProbAirplane"",""prob"":""100"",""classSelect2"":""secondProbNo"",""prob2"":"""",""improbClassSelectAutomobile"":""1"",""improbClassSelectTruck"":""1"",""improbClassSelectHorse"":""1"",""improbClassSelectCat"":""1"",""improbClassSelectShip"":""1"",""improbClassSelectFrog"":""1"",""improbClassSelectDeer"":""1"",""improbClassSelectDog"":""1"",""improbClassSelectBird"":""1""}",,,,,,,mixed_0.25_Bird_2774_Ship_5249.png,rerun_spec_conf,,Bird,Ship,0.25,2774.0,5249.0
66,survey-html-form,32,3081384,rsff1ssyomgyffd,62a7a6baf839fe2d4207b124,1,29149.19999999972,,,"{""classSelect"":""mostProbAirplane"",""prob"":""100"",""classSelect2"":""secondProbNo"",""prob2"":"""",""improbClassSelectAutomobile"":""1"",""improbClassSelectTruck"":""1"",""improbClassSelectHorse"":""1"",""improbClassSelectCat"":""1"",""improbClassSelectShip"":""1"",""improbClassSelectFrog"":""1"",""improbClassSelectDeer"":""1"",""improbClassSelectDog"":""1"",""improbClassSelectBird"":""1""}",,,,,,,mixed_0.25_Airplane_3497_Ship_8913.png,rerun_spec_conf,,Airplane,Ship,0.25,3497.0,8913.0
67,survey-text,33,3197325,rsff1ssyomgyffd,62a7a6baf839fe2d4207b124,1,115897.5,,,"{""Q0"":""10"",""Q1"":""1"",""Q2"":""Reverting or elimination process."",""Q3"":""1"",""Q4"":""No"",""Q5"":""No, is this a quick retrieval or approval time study, thanks.\n""}",,,,,,,,,,,,,,
68,pavlovia,0,1168,a5lldzajrzjhp2p,62a7a6baf839fe2d4207b124,1,,,,,,,,,,,,,,,,,,
69,external-html,1,8410,a5lldzajrzjhp2p,62a7a6baf839fe2d4207b124,1,7121.100000143051,consent.html,,,,,,,,,,,,,,,,
70,instructions,2,67265,a5lldzajrzjhp2p,62a7a6baf839fe2d4207b124,1,58851.5,,"[{""page_index"":0,""viewing_time"":5106.399999856949},{""page_index"":1,""viewing_time"":6683},{""page_index"":2,""viewing_time"":12339.700000047684},{""page_index"":3,""viewing_time"":6286.400000095367},{""page_index"":4,""viewing_time"":11572.200000047684},{""page_index"":5,""viewing_time"":5939.399999856949},{""page_index"":6,""viewing_time"":3129.2999999523163},{""page_index"":7,""viewing_time"":5581.200000047684},{""page_index"":8,""viewing_time"":2212.7999999523163}]",,,,,,,,,,,,,,,
71,survey-multi-choice,3,75610,a5lldzajrzjhp2p,62a7a6baf839fe2d4207b124,1,8342.299999952316,,,"{""Q0"":""The most likely category, or categories, of an image and the associated probability of the selected categories."",""Q1"":""100 crowdsourced workers.""}","[0,1]",,,,,,,,,,,,,
72,instructions,4,77266,a5lldzajrzjhp2p,62a7a6baf839fe2d4207b124,1,1650.8999998569489,,"[{""page_index"":0,""viewing_time"":1650.5}]",,,,,,,,,,,,,,,
73,preload,5,78216,a5lldzajrzjhp2p,62a7a6baf839fe2d4207b124,1,,,,,,True,False,[],[],[],,,,,,,,
74,survey-html-form,6,120850,a5lldzajrzjhp2p,62a7a6baf839fe2d4207b124,1,42627.0,,,"{""classSelect"":""mostProbShip"",""prob"":""65"",""classSelect2"":""secondProbAirplane"",""prob2"":""35"",""improbClassSelectCat"":""1"",""improbClassSelectBird"":""1"",""improbClassSelectFrog"":""1"",""improbClassSelectHorse"":""1"",""improbClassSelectDog"":""1"",""improbClassSelectDeer"":""1""}",,,,,,,mixed_0.25_Airplane_3497_Ship_8913.png,spec_conf,,Airplane,Ship,0.25,3497.0,8913.0
75,survey-html-form,7,147957,a5lldzajrzjhp2p,62a7a6baf839fe2d4207b124,1,27100.5,,,"{""classSelect"":""mostProbTruck"",""prob"":""75"",""classSelect2"":""secondProbAutomobile"",""prob2"":""25"",""improbClassSelectCat"":""1"",""improbClassSelectBird"":""1"",""improbClassSelectFrog"":""1"",""improbClassSelectHorse"":""1"",""improbClassSelectDog"":""1"",""improbClassSelectDeer"":""1""}",,,,,,,mixed_0.25_Bird_7663_Truck_7547.png,spec_conf,,Bird,Truck,0.25,7663.0,7547.0
76,survey-html-form,8,173466,a5lldzajrzjhp2p,62a7a6baf839fe2d4207b124,1,25502.0,,,"{""classSelect"":""mostProbTruck"",""prob"":""65"",""classSelect2"":""secondProbAirplane"",""prob2"":""35"",""improbClassSelectCat"":""1"",""improbClassSelectBird"":""1"",""improbClassSelectFrog"":""1"",""improbClassSelectHorse"":""1"",""improbClassSelectDog"":""1"",""improbClassSelectDeer"":""1""}",,,,,,,mixed_0.5_Airplane_8777_Truck_139.png,spec_conf,,Airplane,Truck,0.5,8777.0,139.0
77,survey-html-form,9,206312,a5lldzajrzjhp2p,62a7a6baf839fe2d4207b124,1,32837.89999985695,,,"{""classSelect"":""mostProbDog"",""prob"":""60"",""classSelect2"":""secondProbDeer"",""prob2"":""20"",""improbClassSelectAirplane"":""1"",""improbClassSelectTruck"":""1"",""improbClassSelectShip"":""1"",""improbClassSelectAutomobile"":""1"",""improbClassSelectFrog"":""1""}",,,,,,,mixed_0.25_Dog_4241_Horse_9140.png,spec_conf,,Dog,Horse,0.25,4241.0,9140.0
78,survey-html-form,10,232581,a5lldzajrzjhp2p,62a7a6baf839fe2d4207b124,1,26261.0,,,"{""classSelect"":""mostProbHorse"",""prob"":""30"",""classSelect2"":""secondProbDog"",""prob2"":""20"",""improbClassSelectAirplane"":""1"",""improbClassSelectTruck"":""1"",""improbClassSelectShip"":""1"",""improbClassSelectAutomobile"":""1""}",,,,,,,mixed_0.5_Airplane_1823_Automobile_9694.png,spec_conf,,Airplane,Automobile,0.5,1823.0,9694.0
79,survey-html-form,11,253831,a5lldzajrzjhp2p,62a7a6baf839fe2d4207b124,1,21242.900000095367,,,"{""classSelect"":""mostProbBird"",""prob"":""95"",""classSelect2"":""secondProbNo"",""prob2"":""0"",""improbClassSelectAirplane"":""1"",""improbClassSelectTruck"":""1"",""improbClassSelectShip"":""1"",""improbClassSelectAutomobile"":""1"",""improbClassSelectCat"":""1"",""improbClassSelectFrog"":""1"",""improbClassSelectHorse"":""1"",""improbClassSelectDog"":""1"",""improbClassSelectDeer"":""1""}",,,,,,,mixed_0.5_Bird_1257_Ship_4709.png,spec_conf,,Bird,Ship,0.5,1257.0,4709.0
80,survey-html-form,12,277145,a5lldzajrzjhp2p,62a7a6baf839fe2d4207b124,1,23307.5,,,"{""classSelect"":""mostProbHorse"",""prob"":""95"",""classSelect2"":""secondProbNo"",""prob2"":""0"",""improbClassSelectAirplane"":""1"",""improbClassSelectTruck"":""1"",""improbClassSelectShip"":""1"",""improbClassSelectAutomobile"":""1"",""improbClassSelectCat"":""1"",""improbClassSelectBird"":""1"",""improbClassSelectFrog"":""1"",""improbClassSelectDog"":""1"",""improbClassSelectDeer"":""1""}",,,,,,,mixed_0.75_Horse_5096_Truck_9312.png,spec_conf,,Horse,Truck,0.75,5096.0,9312.0
81,survey-html-form,13,300519,a5lldzajrzjhp2p,62a7a6baf839fe2d4207b124,1,23367.200000047684,,,"{""classSelect"":""mostProbAutomobile"",""prob"":""95"",""classSelect2"":""secondProbTruck"",""prob2"":""5"",""improbClassSelectShip"":""1"",""improbClassSelectCat"":""1"",""improbClassSelectBird"":""1"",""improbClassSelectFrog"":""1"",""improbClassSelectHorse"":""1"",""improbClassSelectDog"":""1"",""improbClassSelectDeer"":""1""}",,,,,,,mixed_0.5_Frog_4161_Truck_1439.png,spec_conf,,Frog,Truck,0.5,4161.0,1439.0
82,survey-html-form,14,323046,a5lldzajrzjhp2p,62a7a6baf839fe2d4207b124,1,22518.900000095367,,,"{""classSelect"":""mostProbDeer"",""prob"":""75"",""classSelect2"":""secondProbCat"",""prob2"":""25"",""improbClassSelectAirplane"":""1"",""improbClassSelectTruck"":""1"",""improbClassSelectShip"":""1"",""improbClassSelectAutomobile"":""1"",""improbClassSelectFrog"":""1""}",,,,,,,mixed_0.5_Airplane_2569_Cat_8072.png,spec_conf,,Airplane,Cat,0.5,2569.0,8072.0
83,survey-html-form,15,341899,a5lldzajrzjhp2p,62a7a6baf839fe2d4207b124,1,18846.39999985695,,,"{""classSelect"":""mostProbBird"",""prob"":""100"",""classSelect2"":""secondProbNo"",""prob2"":""0"",""improbClassSelectAirplane"":""1"",""improbClassSelectTruck"":""1"",""improbClassSelectShip"":""1"",""improbClassSelectAutomobile"":""1"",""improbClassSelectCat"":""1"",""improbClassSelectFrog"":""1"",""improbClassSelectHorse"":""1"",""improbClassSelectDog"":""1"",""improbClassSelectDeer"":""1""}",,,,,,,mixed_0.5_Bird_4535_Cat_4652.png,spec_conf,,Bird,Cat,0.5,4535.0,4652.0
84,survey-html-form,16,382635,a5lldzajrzjhp2p,62a7a6baf839fe2d4207b124,1,40727.39999985695,,,"{""classSelect"":""mostProbTruck"",""prob"":""90"",""classSelect2"":""secondProbAutomobile"",""prob2"":""10"",""improbClassSelectShip"":""1"",""improbClassSelectCat"":""1"",""improbClassSelectBird"":""1"",""improbClassSelectFrog"":""1"",""improbClassSelectHorse"":""1"",""improbClassSelectDog"":""1"",""improbClassSelectDeer"":""1""}",,,,,,,mixed_0.5_Automobile_9916_Deer_718.png,spec_conf,,Automobile,Deer,0.5,9916.0,718.0
85,survey-html-form,17,400851,a5lldzajrzjhp2p,62a7a6baf839fe2d4207b124,1,18209.29999995232,,,"{""classSelect"":""mostProbTruck"",""prob"":""75"",""classSelect2"":""secondProbAutomobile"",""prob2"":""25"",""improbClassSelectCat"":""1"",""improbClassSelectBird"":""1"",""improbClassSelectFrog"":""1"",""improbClassSelectHorse"":""1"",""improbClassSelectDog"":""1"",""improbClassSelectDeer"":""1""}",,,,,,,mixed_0.5_Airplane_237_Truck_7501.png,spec_conf,,Airplane,Truck,0.5,237.0,7501.0
86,survey-html-form,18,425445,a5lldzajrzjhp2p,62a7a6baf839fe2d4207b124,1,24586.79999995232,,,"{""classSelect"":""mostProbCat"",""prob"":""20"",""classSelect2"":""secondProbShip"",""prob2"":""20"",""improbClassSelectFrog"":""1""}",,,,,,,mixed_0.25_Bird_2774_Ship_5249.png,spec_conf,,Bird,Ship,0.25,2774.0,5249.0
87,survey-html-form,19,441290,a5lldzajrzjhp2p,62a7a6baf839fe2d4207b124,1,15837.799999952316,,,"{""classSelect"":""mostProbHorse"",""prob"":""100"",""classSelect2"":""secondProbNo"",""prob2"":""0"",""improbClassSelectAirplane"":""1"",""improbClassSelectTruck"":""1"",""improbClassSelectShip"":""1"",""improbClassSelectAutomobile"":""1"",""improbClassSelectCat"":""1"",""improbClassSelectBird"":""1"",""improbClassSelectFrog"":""1"",""improbClassSelectDog"":""1"",""improbClassSelectDeer"":""1""}",,,,,,,mixed_0.5_Dog_7433_Horse_410.png,spec_conf,,Dog,Horse,0.5,7433.0,410.0
88,survey-html-form,20,463774,a5lldzajrzjhp2p,62a7a6baf839fe2d4207b124,1,22477.200000047684,,,"{""classSelect"":""mostProbHorse"",""prob"":""35"",""classSelect2"":""secondProbCat"",""prob2"":""35"",""improbClassSelectAirplane"":""1"",""improbClassSelectTruck"":""1"",""improbClassSelectShip"":""1"",""improbClassSelectAutomobile"":""1""}",,,,,,,mixed_0.75_Bird_7845_Dog_3424.png,spec_conf,,Bird,Dog,0.75,7845.0,3424.0
89,survey-html-form,21,483799,a5lldzajrzjhp2p,62a7a6baf839fe2d4207b124,1,20018.099999904636,,,"{""classSelect"":""mostProbDeer"",""prob"":""85"",""classSelect2"":""secondProbHorse"",""prob2"":""15"",""improbClassSelectAirplane"":""1"",""improbClassSelectTruck"":""1"",""improbClassSelectShip"":""1"",""improbClassSelectAutomobile"":""1"",""improbClassSelectCat"":""1"",""improbClassSelectBird"":""1"",""improbClassSelectFrog"":""1""}",,,,,,,mixed_0.5_Deer_3203_Ship_3821.png,spec_conf,,Deer,Ship,0.5,3203.0,3821.0
90,survey-html-form,22,502551,a5lldzajrzjhp2p,62a7a6baf839fe2d4207b124,1,18745.0,,,"{""classSelect"":""mostProbCat"",""prob"":""95"",""classSelect2"":""secondProbDog"",""prob2"":""5"",""improbClassSelectAirplane"":""1"",""improbClassSelectTruck"":""1"",""improbClassSelectShip"":""1"",""improbClassSelectAutomobile"":""1"",""improbClassSelectBird"":""1"",""improbClassSelectFrog"":""1""}",,,,,,,mixed_0.75_Cat_8023_Dog_4988.png,spec_conf,,Cat,Dog,0.75,8023.0,4988.0
91,survey-html-form,23,520320,a5lldzajrzjhp2p,62a7a6baf839fe2d4207b124,1,17760.10000014305,,,"{""classSelect"":""mostProbBird"",""prob"":""100"",""classSelect2"":""secondProbNo"",""prob2"":""0"",""improbClassSelectAirplane"":""1"",""improbClassSelectTruck"":""1"",""improbClassSelectShip"":""1"",""improbClassSelectAutomobile"":""1"",""improbClassSelectCat"":""1"",""improbClassSelectFrog"":""1"",""improbClassSelectHorse"":""1"",""improbClassSelectDog"":""1"",""improbClassSelectDeer"":""1""}",,,,,,,mixed_0.75_Bird_9831_Dog_2372.png,spec_conf,,Bird,Dog,0.75,9831.0,2372.0
92,survey-html-form,24,540279,a5lldzajrzjhp2p,62a7a6baf839fe2d4207b124,1,19952.0,,,"{""classSelect"":""mostProbFrog"",""prob"":""100"",""classSelect2"":""secondProbNo"",""prob2"":""0"",""improbClassSelectAirplane"":""1"",""improbClassSelectTruck"":""1"",""improbClassSelectShip"":""1"",""improbClassSelectAutomobile"":""1"",""improbClassSelectCat"":""1"",""improbClassSelectBird"":""1"",""improbClassSelectHorse"":""1"",""improbClassSelectDog"":""1"",""improbClassSelectDeer"":""1""}",,,,,,,mixed_0.25_Airplane_8812_Bird_3076.png,spec_conf,,Airplane,Bird,0.25,8812.0,3076.0
93,survey-html-form,25,562577,a5lldzajrzjhp2p,62a7a6baf839fe2d4207b124,1,22291.0,,,"{""classSelect"":""mostProbBird"",""prob"":""90"",""classSelect2"":""secondProbFrog"",""prob2"":""10"",""improbClassSelectAirplane"":""1"",""improbClassSelectTruck"":""1"",""improbClassSelectShip"":""1"",""improbClassSelectAutomobile"":""1"",""improbClassSelectHorse"":""1"",""improbClassSelectDog"":""1"",""improbClassSelectDeer"":""1""}",,,,,,,mixed_0.5_Bird_2856_Dog_5694.png,spec_conf,,Bird,Dog,0.5,2856.0,5694.0
94,survey-html-form,26,586043,a5lldzajrzjhp2p,62a7a6baf839fe2d4207b124,1,23461.599999904636,,,"{""classSelect"":""mostProbBird"",""prob"":""50"",""classSelect2"":""secondProbDeer"",""prob2"":""50"",""improbClassSelectAirplane"":""1"",""improbClassSelectTruck"":""1"",""improbClassSelectShip"":""1"",""improbClassSelectAutomobile"":""1""}",,,,,,,mixed_0.5_Bird_5258_Frog_2549.png,spec_conf,,Bird,Frog,0.5,5258.0,2549.0
95,survey-html-form,27,602325,a5lldzajrzjhp2p,62a7a6baf839fe2d4207b124,1,16275.799999952316,,,"{""classSelect"":""mostProbHorse"",""prob"":""100"",""classSelect2"":""secondProbNo"",""prob2"":""0"",""improbClassSelectAirplane"":""1"",""improbClassSelectTruck"":""1"",""improbClassSelectShip"":""1"",""improbClassSelectAutomobile"":""1"",""improbClassSelectCat"":""1"",""improbClassSelectBird"":""1"",""improbClassSelectFrog"":""1"",""improbClassSelectDog"":""1"",""improbClassSelectDeer"":""1""}",,,,,,,mixed_0.5_Frog_3349_Horse_1560.png,spec_conf,,Frog,Horse,0.5,3349.0,1560.0
96,survey-html-form,28,619209,a5lldzajrzjhp2p,62a7a6baf839fe2d4207b124,1,16877.599999904633,,,"{""classSelect"":""mostProbHorse"",""prob"":""80"",""classSelect2"":""secondProbAutomobile"",""prob2"":""20"",""improbClassSelectBird"":""1"",""improbClassSelectFrog"":""1""}",,,,,,,mixed_0.75_Horse_87_Truck_3409.png,spec_conf,,Horse,Truck,0.75,87.0,3409.0
97,survey-html-form,29,636005,a5lldzajrzjhp2p,62a7a6baf839fe2d4207b124,1,16792.39999985695,,,"{""classSelect"":""mostProbTruck"",""prob"":""95"",""classSelect2"":""secondProbAutomobile"",""prob2"":""5"",""improbClassSelectShip"":""1"",""improbClassSelectCat"":""1"",""improbClassSelectBird"":""1"",""improbClassSelectFrog"":""1"",""improbClassSelectHorse"":""1"",""improbClassSelectDog"":""1"",""improbClassSelectDeer"":""1""}",,,,,,,mixed_0.25_Bird_2977_Truck_626.png,spec_conf,,Bird,Truck,0.25,2977.0,626.0
98,survey-html-form,30,653004,a5lldzajrzjhp2p,62a7a6baf839fe2d4207b124,1,16991.700000047684,,,"{""classSelect"":""mostProbFrog"",""prob"":""100"",""classSelect2"":""secondProbNo"",""prob2"":""0"",""improbClassSelectAirplane"":""1"",""improbClassSelectTruck"":""1"",""improbClassSelectShip"":""1"",""improbClassSelectAutomobile"":""1"",""improbClassSelectCat"":""1"",""improbClassSelectBird"":""1"",""improbClassSelectHorse"":""1"",""improbClassSelectDog"":""1"",""improbClassSelectDeer"":""1""}",,,,,,,mixed_0.25_Dog_1862_Frog_8273.png,spec_conf,,Dog,Frog,0.25,1862.0,8273.0
99,survey-html-form,31,667542,a5lldzajrzjhp2p,62a7a6baf839fe2d4207b124,1,14529.900000095367,,,"{""classSelect"":""mostProbBird"",""prob"":""100"",""classSelect2"":""secondProbNo"",""prob2"":""0"",""improbClassSelectAirplane"":""1"",""improbClassSelectTruck"":""1"",""improbClassSelectShip"":""1"",""improbClassSelectAutomobile"":""1"",""improbClassSelectCat"":""1"",""improbClassSelectFrog"":""1"",""improbClassSelectHorse"":""1"",""improbClassSelectDog"":""1"",""improbClassSelectDeer"":""1""}",,,,,,,mixed_0.5_Bird_1257_Ship_4709.png,rerun_spec_conf,,Bird,Ship,0.5,1257.0,4709.0
100,survey-html-form,32,684700,a5lldzajrzjhp2p,62a7a6baf839fe2d4207b124,1,17158.400000095367,,,"{""classSelect"":""mostProbTruck"",""prob"":""95"",""classSelect2"":""secondProbAutomobile"",""prob2"":""5"",""improbClassSelectAirplane"":""1"",""improbClassSelectShip"":""1"",""improbClassSelectCat"":""1"",""improbClassSelectBird"":""1"",""improbClassSelectFrog"":""1"",""improbClassSelectHorse"":""1"",""improbClassSelectDog"":""1"",""improbClassSelectDeer"":""1""}",,,,,,,mixed_0.5_Automobile_9916_Deer_718.png,rerun_spec_conf,,Automobile,Deer,0.5,9916.0,718.0
101,survey-text,33,730416,a5lldzajrzjhp2p,62a7a6baf839fe2d4207b124,1,45675.90000009537,,,"{""Q0"":""10"",""Q1"":""6"",""Q2"":""Looked at colors and shapes"",""Q3"":""Maybe in one or two"",""Q4"":""Mostly the color and the general shape of the image. Like for example frog is the only one that would be mostly green"",""Q5"":""""}",,,,,,,,,,,,,,
102,pavlovia,0,1100,rhwc4fzmf1b290a,62a7a6baf839fe2d4207b124,2,,,,,,,,,,,,,,,,,,
103,external-html,1,24327,rhwc4fzmf1b290a,62a7a6baf839fe2d4207b124,2,23095.39999999106,consent.html,,,,,,,,,,,,,,,,
104,instructions,2,153937,rhwc4fzmf1b290a,62a7a6baf839fe2d4207b124,2,129608.20000000298,,"[{""page_index"":0,""viewing_time"":8831.90000000596},{""page_index"":1,""viewing_time"":11140.20000000298},{""page_index"":2,""viewing_time"":30763.09999999404},{""page_index"":3,""viewing_time"":24486.20000000298},{""page_index"":4,""viewing_time"":27284.40000000596},{""page_index"":5,""viewing_time"":10153},{""page_index"":6,""viewing_time"":4849.199999988079},{""page_index"":7,""viewing_time"":9042.90000000596},{""page_index"":8,""viewing_time"":3055.7000000029802}]",,,,,,,,,,,,,,,
105,survey-multi-choice,3,178868,rhwc4fzmf1b290a,62a7a6baf839fe2d4207b124,2,24926.10000000894,,,"{""Q0"":""The most likely category, or categories, of an image and the associated probability of the selected categories."",""Q1"":""100 crowdsourced workers.""}","[0,1]",,,,,,,,,,,,,
106,instructions,4,181691,rhwc4fzmf1b290a,62a7a6baf839fe2d4207b124,2,2820.70000000298,,"[{""page_index"":0,""viewing_time"":2819.7000000029802}]",,,,,,,,,,,,,,,
107,preload,5,184214,rhwc4fzmf1b290a,62a7a6baf839fe2d4207b124,2,,,,,,True,False,[],[],[],,,,,,,,
108,survey-html-form,6,258390,rhwc4fzmf1b290a,62a7a6baf839fe2d4207b124,2,74170.59999999404,,,"{""classSelect"":""mostProbAutomobile"",""prob"":""75"",""classSelect2"":""secondProbTruck"",""prob2"":""25"",""improbClassSelectAirplane"":""1"",""improbClassSelectFrog"":""1"",""improbClassSelectCat"":""1"",""improbClassSelectDog"":""1"",""improbClassSelectHorse"":""1"",""improbClassSelectShip"":""1"",""improbClassSelectBird"":""1"",""improbClassSelectDeer"":""1""}",,,,,,,mixed_0.5_Automobile_9373_Horse_2006.png,spec_conf,,Automobile,Horse,0.5,9373.0,2006.0
109,survey-html-form,7,301601,rhwc4fzmf1b290a,62a7a6baf839fe2d4207b124,2,43203.79999999702,,,"{""classSelect"":""mostProbDog"",""prob"":""100"",""classSelect2"":""secondProbNo"",""prob2"":"""",""improbClassSelectAirplane"":""1"",""improbClassSelectFrog"":""1"",""improbClassSelectCat"":""1"",""improbClassSelectAutomobile"":""1"",""improbClassSelectHorse"":""1"",""improbClassSelectShip"":""1"",""improbClassSelectBird"":""1"",""improbClassSelectTruck"":""1"",""improbClassSelectDeer"":""1""}",,,,,,,mixed_0.25_Airplane_7428_Dog_5504.png,spec_conf,,Airplane,Dog,0.25,7428.0,5504.0
110,survey-html-form,8,341127,rhwc4fzmf1b290a,62a7a6baf839fe2d4207b124,2,39520.39999999106,,,"{""classSelect"":""mostProbAutomobile"",""prob"":""50"",""classSelect2"":""secondProbShip"",""prob2"":""50"",""improbClassSelectFrog"":""1"",""improbClassSelectCat"":""1"",""improbClassSelectDog"":""1"",""improbClassSelectHorse"":""1"",""improbClassSelectBird"":""1"",""improbClassSelectDeer"":""1""}",,,,,,,mixed_0.75_Ship_8441_Truck_5521.png,spec_conf,,Ship,Truck,0.75,8441.0,5521.0
111,survey-html-form,9,372084,rhwc4fzmf1b290a,62a7a6baf839fe2d4207b124,2,30950.40000000596,,,"{""classSelect"":""mostProbTruck"",""prob"":""75"",""classSelect2"":""secondProbAutomobile"",""prob2"":""25"",""improbClassSelectAirplane"":""1"",""improbClassSelectFrog"":""1"",""improbClassSelectCat"":""1"",""improbClassSelectDog"":""1"",""improbClassSelectHorse"":""1"",""improbClassSelectShip"":""1"",""improbClassSelectBird"":""1"",""improbClassSelectDeer"":""1""}",,,,,,,mixed_0.25_Frog_5334_Truck_2174.png,spec_conf,,Frog,Truck,0.25,5334.0,2174.0
112,survey-html-form,10,420200,rhwc4fzmf1b290a,62a7a6baf839fe2d4207b124,2,48110.79999999702,,,"{""classSelect"":""mostProbShip"",""prob"":""50"",""classSelect2"":""secondProbAirplane"",""prob2"":""50"",""improbClassSelectFrog"":""1"",""improbClassSelectCat"":""1"",""improbClassSelectDog"":""1"",""improbClassSelectHorse"":""1"",""improbClassSelectBird"":""1"",""improbClassSelectDeer"":""1""}",,,,,,,mixed_0.5_Horse_3327_Ship_9834.png,spec_conf,,Horse,Ship,0.5,3327.0,9834.0
113,survey-html-form,11,442637,rhwc4fzmf1b290a,62a7a6baf839fe2d4207b124,2,22432.20000000298,,,"{""classSelect"":""mostProbHorse"",""prob"":""100"",""classSelect2"":""secondProbNo"",""prob2"":"""",""improbClassSelectAirplane"":""1"",""improbClassSelectFrog"":""1"",""improbClassSelectCat"":""1"",""improbClassSelectAutomobile"":""1"",""improbClassSelectDog"":""1"",""improbClassSelectShip"":""1"",""improbClassSelectBird"":""1"",""improbClassSelectTruck"":""1"",""improbClassSelectDeer"":""1""}",,,,,,,mixed_0.25_Cat_9722_Horse_60.png,spec_conf,,Cat,Horse,0.25,9722.0,60.0
114,survey-html-form,12,474881,rhwc4fzmf1b290a,62a7a6baf839fe2d4207b124,2,32238.5,,,"{""classSelect"":""mostProbDog"",""prob"":""80"",""classSelect2"":""secondProbHorse"",""prob2"":""20"",""improbClassSelectAirplane"":""1"",""improbClassSelectFrog"":""1"",""improbClassSelectCat"":""1"",""improbClassSelectAutomobile"":""1"",""improbClassSelectShip"":""1"",""improbClassSelectBird"":""1"",""improbClassSelectTruck"":""1"",""improbClassSelectDeer"":""1""}",,,,,,,mixed_0.25_Frog_4082_Horse_9570.png,spec_conf,,Frog,Horse,0.25,4082.0,9570.0
115,survey-html-form,13,500131,rhwc4fzmf1b290a,62a7a6baf839fe2d4207b124,2,25244.80000001192,,,"{""classSelect"":""mostProbAutomobile"",""prob"":""100"",""classSelect2"":""secondProbNo"",""prob2"":"""",""improbClassSelectAirplane"":""1"",""improbClassSelectFrog"":""1"",""improbClassSelectCat"":""1"",""improbClassSelectDog"":""1"",""improbClassSelectHorse"":""1"",""improbClassSelectShip"":""1"",""improbClassSelectBird"":""1"",""improbClassSelectDeer"":""1""}",,,,,,,mixed_0.75_Automobile_1797_Dog_8682.png,spec_conf,,Automobile,Dog,0.75,1797.0,8682.0
116,survey-html-form,14,540430,rhwc4fzmf1b290a,62a7a6baf839fe2d4207b124,2,40293.09999999404,,,"{""classSelect"":""mostProbTruck"",""prob"":""100"",""classSelect2"":""secondProbNo"",""prob2"":"""",""improbClassSelectAirplane"":""1"",""improbClassSelectFrog"":""1"",""improbClassSelectCat"":""1"",""improbClassSelectDog"":""1"",""improbClassSelectHorse"":""1"",""improbClassSelectShip"":""1"",""improbClassSelectBird"":""1"",""improbClassSelectDeer"":""1""}",,,,,,,mixed_0.25_Cat_4346_Truck_4932.png,spec_conf,,Cat,Truck,0.25,4346.0,4932.0
117,survey-html-form,15,589105,rhwc4fzmf1b290a,62a7a6baf839fe2d4207b124,2,48669.89999999106,,,"{""classSelect"":""mostProbDog"",""prob"":""85"",""classSelect2"":""secondProbCat"",""prob2"":""15"",""improbClassSelectAirplane"":""1"",""improbClassSelectFrog"":""1"",""improbClassSelectAutomobile"":""1"",""improbClassSelectHorse"":""1"",""improbClassSelectShip"":""1"",""improbClassSelectBird"":""1"",""improbClassSelectTruck"":""1"",""improbClassSelectDeer"":""1""}",,,,,,,mixed_0.5_Bird_755_Horse_3890.png,spec_conf,,Bird,Horse,0.5,755.0,3890.0
118,survey-html-form,16,655937,rhwc4fzmf1b290a,62a7a6baf839fe2d4207b124,2,66822.10000000894,,,"{""classSelect"":""mostProbAirplane"",""prob"":""50"",""classSelect2"":""secondProbShip"",""prob2"":""50"",""improbClassSelectFrog"":""1"",""improbClassSelectCat"":""1"",""improbClassSelectDog"":""1"",""improbClassSelectHorse"":""1"",""improbClassSelectBird"":""1"",""improbClassSelectDeer"":""1""}",,,,,,,mixed_0.5_Airplane_4313_Horse_9184.png,spec_conf,,Airplane,Horse,0.5,4313.0,9184.0
119,survey-html-form,17,696002,rhwc4fzmf1b290a,62a7a6baf839fe2d4207b124,2,40059.59999999404,,,"{""classSelect"":""mostProbDog"",""prob"":""50"",""classSelect2"":""secondProbCat"",""prob2"":""50"",""improbClassSelectAirplane"":""1"",""improbClassSelectFrog"":""1"",""improbClassSelectAutomobile"":""1"",""improbClassSelectHorse"":""1"",""improbClassSelectShip"":""1"",""improbClassSelectTruck"":""1"",""improbClassSelectDeer"":""1""}",,,,,,,mixed_0.5_Cat_1603_Dog_9798.png,spec_conf,,Cat,Dog,0.5,1603.0,9798.0
120,survey-html-form,18,741722,rhwc4fzmf1b290a,62a7a6baf839fe2d4207b124,2,45715.19999998808,,,"{""classSelect"":""mostProbFrog"",""prob"":""60"",""classSelect2"":""secondProbBird"",""prob2"":""40"",""improbClassSelectAirplane"":""1"",""improbClassSelectAutomobile"":""1"",""improbClassSelectDog"":""1"",""improbClassSelectHorse"":""1"",""improbClassSelectShip"":""1"",""improbClassSelectTruck"":""1"",""improbClassSelectDeer"":""1""}",,,,,,,mixed_0.5_Deer_3962_Frog_5761.png,spec_conf,,Deer,Frog,0.5,3962.0,5761.0
121,survey-html-form,19,785431,rhwc4fzmf1b290a,62a7a6baf839fe2d4207b124,2,43703.5,,,"{""classSelect"":""mostProbBird"",""prob"":""70"",""classSelect2"":""secondProbNo"",""prob2"":"""",""improbClassSelectAirplane"":""1"",""improbClassSelectFrog"":""1"",""improbClassSelectCat"":""1"",""improbClassSelectAutomobile"":""1"",""improbClassSelectDog"":""1"",""improbClassSelectHorse"":""1"",""improbClassSelectShip"":""1"",""improbClassSelectTruck"":""1"",""improbClassSelectDeer"":""1""}",,,,,,,mixed_0.5_Bird_2199_Dog_6782.png,spec_conf,,Bird,Dog,0.5,2199.0,6782.0
122,survey-html-form,20,810677,rhwc4fzmf1b290a,62a7a6baf839fe2d4207b124,2,25241.79999998212,,,"{""classSelect"":""mostProbAutomobile"",""prob"":""100"",""classSelect2"":""secondProbNo"",""prob2"":"""",""improbClassSelectAirplane"":""1"",""improbClassSelectFrog"":""1"",""improbClassSelectCat"":""1"",""improbClassSelectDog"":""1"",""improbClassSelectHorse"":""1"",""improbClassSelectShip"":""1"",""improbClassSelectBird"":""1"",""improbClassSelectDeer"":""1""}",,,,,,,mixed_0.75_Automobile_2813_Truck_8727.png,spec_conf,,Automobile,Truck,0.75,2813.0,8727.0
123,survey-html-form,21,838607,rhwc4fzmf1b290a,62a7a6baf839fe2d4207b124,2,27922.69999998808,,,"{""classSelect"":""mostProbDog"",""prob"":""90"",""classSelect2"":""secondProbCat"",""prob2"":""10"",""improbClassSelectAirplane"":""1"",""improbClassSelectFrog"":""1"",""improbClassSelectAutomobile"":""1"",""improbClassSelectHorse"":""1"",""improbClassSelectShip"":""1"",""improbClassSelectBird"":""1"",""improbClassSelectTruck"":""1"",""improbClassSelectDeer"":""1""}",,,,,,,mixed_0.5_Airplane_74_Dog_3610.png,spec_conf,,Airplane,Dog,0.5,74.0,3610.0
124,survey-html-form,22,879624,rhwc4fzmf1b290a,62a7a6baf839fe2d4207b124,2,41011.89999997616,,,"{""classSelect"":""mostProbDog"",""prob"":""50"",""classSelect2"":""secondProbCat"",""prob2"":""50"",""improbClassSelectAirplane"":""1"",""improbClassSelectFrog"":""1"",""improbClassSelectAutomobile"":""1"",""improbClassSelectHorse"":""1"",""improbClassSelectShip"":""1"",""improbClassSelectBird"":""1"",""improbClassSelectTruck"":""1""}",,,,,,,mixed_0.75_Frog_5175_Truck_6963.png,spec_conf,,Frog,Truck,0.75,5175.0,6963.0
125,survey-html-form,23,920580,rhwc4fzmf1b290a,62a7a6baf839fe2d4207b124,2,40948.60000002384,,,"{""classSelect"":""mostProbTruck"",""prob"":""75"",""classSelect2"":""secondProbAutomobile"",""prob2"":""25"",""improbClassSelectAirplane"":""1"",""improbClassSelectFrog"":""1"",""improbClassSelectCat"":""1"",""improbClassSelectDog"":""1"",""improbClassSelectHorse"":""1"",""improbClassSelectShip"":""1"",""improbClassSelectBird"":""1"",""improbClassSelectDeer"":""1""}",,,,,,,mixed_0.5_Ship_1004_Truck_5627.png,spec_conf,,Ship,Truck,0.5,1004.0,5627.0
126,survey-html-form,24,953348,rhwc4fzmf1b290a,62a7a6baf839fe2d4207b124,2,32762.30000001192,,,"{""classSelect"":""mostProbCat"",""prob"":""90"",""classSelect2"":""secondProbDog"",""prob2"":""10"",""improbClassSelectAirplane"":""1"",""improbClassSelectFrog"":""1"",""improbClassSelectAutomobile"":""1"",""improbClassSelectHorse"":""1"",""improbClassSelectShip"":""1"",""improbClassSelectBird"":""1"",""improbClassSelectTruck"":""1"",""improbClassSelectDeer"":""1""}",,,,,,,mixed_0.25_Airplane_3680_Cat_7174.png,spec_conf,,Airplane,Cat,0.25,3680.0,7174.0
127,survey-html-form,25,1024252,rhwc4fzmf1b290a,62a7a6baf839fe2d4207b124,2,70896.69999998808,,,"{""classSelect"":""mostProbAirplane"",""prob"":""50"",""classSelect2"":""secondProbShip"",""prob2"":""50"",""improbClassSelectFrog"":""1"",""improbClassSelectCat"":""1"",""improbClassSelectAutomobile"":""1"",""improbClassSelectTruck"":""1""}",,,,,,,mixed_0.75_Frog_5446_Ship_2896.png,spec_conf,,Frog,Ship,0.75,5446.0,2896.0
128,survey-html-form,26,1057532,rhwc4fzmf1b290a,62a7a6baf839fe2d4207b124,2,33274.10000002384,,,"{""classSelect"":""mostProbCat"",""prob"":""50"",""classSelect2"":""secondProbDog"",""prob2"":""50"",""improbClassSelectAirplane"":""1"",""improbClassSelectFrog"":""1"",""improbClassSelectAutomobile"":""1"",""improbClassSelectHorse"":""1"",""improbClassSelectShip"":""1"",""improbClassSelectBird"":""1"",""improbClassSelectTruck"":""1"",""improbClassSelectDeer"":""1""}",,,,,,,mixed_0.5_Cat_5200_Deer_4828.png,spec_conf,,Cat,Deer,0.5,5200.0,4828.0
129,survey-html-form,27,1097028,rhwc4fzmf1b290a,62a7a6baf839fe2d4207b124,2,39492.0,,,"{""classSelect"":""mostProbTruck"",""prob"":""95"",""classSelect2"":""secondProbAutomobile"",""prob2"":""5"",""improbClassSelectAirplane"":""1"",""improbClassSelectFrog"":""1"",""improbClassSelectCat"":""1"",""improbClassSelectDog"":""1"",""improbClassSelectHorse"":""1"",""improbClassSelectShip"":""1"",""improbClassSelectBird"":""1"",""improbClassSelectDeer"":""1""}",,,,,,,mixed_0.25_Frog_9456_Truck_4768.png,spec_conf,,Frog,Truck,0.25,9456.0,4768.0
130,survey-html-form,28,1186039,rhwc4fzmf1b290a,62a7a6baf839fe2d4207b124,2,89006.0,,,"{""classSelect"":""mostProbAutomobile"",""prob"":""50"",""classSelect2"":""secondProbAirplane"",""prob2"":""50"",""improbClassSelectFrog"":""1"",""improbClassSelectCat"":""1"",""improbClassSelectDog"":""1"",""improbClassSelectHorse"":""1"",""improbClassSelectBird"":""1"",""improbClassSelectDeer"":""1""}",,,,,,,mixed_0.75_Airplane_3497_Ship_8913.png,spec_conf,,Airplane,Ship,0.75,3497.0,8913.0
131,survey-html-form,29,1214512,rhwc4fzmf1b290a,62a7a6baf839fe2d4207b124,2,28469.0,,,"{""classSelect"":""mostProbHorse"",""prob"":""100"",""classSelect2"":""secondProbNo"",""prob2"":"""",""improbClassSelectAirplane"":""1"",""improbClassSelectFrog"":""1"",""improbClassSelectCat"":""1"",""improbClassSelectAutomobile"":""1"",""improbClassSelectDog"":""1"",""improbClassSelectShip"":""1"",""improbClassSelectBird"":""1"",""improbClassSelectTruck"":""1"",""improbClassSelectDeer"":""1""}",,,,,,,mixed_0.25_Automobile_2838_Horse_2062.png,spec_conf,,Automobile,Horse,0.25,2838.0,2062.0
132,survey-html-form,30,1240126,rhwc4fzmf1b290a,62a7a6baf839fe2d4207b124,2,25606.29999998212,,,"{""classSelect"":""mostProbTruck"",""prob"":""90"",""classSelect2"":""secondProbAutomobile"",""prob2"":""10"",""improbClassSelectAirplane"":""1"",""improbClassSelectFrog"":""1"",""improbClassSelectCat"":""1"",""improbClassSelectDog"":""1"",""improbClassSelectHorse"":""1"",""improbClassSelectShip"":""1"",""improbClassSelectBird"":""1"",""improbClassSelectDeer"":""1""}",,,,,,,mixed_0.5_Automobile_2645_Dog_4764.png,spec_conf,,Automobile,Dog,0.5,2645.0,4764.0
133,survey-html-form,31,1265105,rhwc4fzmf1b290a,62a7a6baf839fe2d4207b124,2,24974.69999998808,,,"{""classSelect"":""mostProbHorse"",""prob"":""100"",""classSelect2"":""secondProbNo"",""prob2"":"""",""improbClassSelectAirplane"":""1"",""improbClassSelectFrog"":""1"",""improbClassSelectCat"":""1"",""improbClassSelectAutomobile"":""1"",""improbClassSelectDog"":""1"",""improbClassSelectShip"":""1"",""improbClassSelectBird"":""1"",""improbClassSelectTruck"":""1"",""improbClassSelectDeer"":""1""}",,,,,,,mixed_0.25_Cat_9722_Horse_60.png,rerun_spec_conf,,Cat,Horse,0.25,9722.0,60.0
134,survey-html-form,32,1302861,rhwc4fzmf1b290a,62a7a6baf839fe2d4207b124,2,37748.59999999404,,,"{""classSelect"":""mostProbAirplane"",""prob"":""90"",""classSelect2"":""secondProbShip"",""prob2"":""10"",""improbClassSelectFrog"":""1"",""improbClassSelectCat"":""1"",""improbClassSelectDog"":""1"",""improbClassSelectHorse"":""1"",""improbClassSelectBird"":""1"",""improbClassSelectDeer"":""1""}",,,,,,,mixed_0.5_Airplane_4313_Horse_9184.png,rerun_spec_conf,,Airplane,Horse,0.5,4313.0,9184.0
135,survey-text,33,1343264,rhwc4fzmf1b290a,62a7a6baf839fe2d4207b124,2,40387.09999999404,,,"{""Q0"":""10"",""Q1"":""5"",""Q2"":""no"",""Q3"":""no"",""Q4"":""none"",""Q5"":""no""}",,,,,,,,,,,,,,
136,pavlovia,0,1751,07ab9n0v00w6wfd,62a7a6baf839fe2d4207b124,0,,,,,,,,,,,,,,,,,,
137,external-html,1,23493,07ab9n0v00w6wfd,62a7a6baf839fe2d4207b124,0,21393.40000000596,consent.html,,,,,,,,,,,,,,,,
138,instructions,2,129719,07ab9n0v00w6wfd,62a7a6baf839fe2d4207b124,0,106226.10000000894,,"[{""page_index"":0,""viewing_time"":10996.300000011921},{""page_index"":1,""viewing_time"":6730.699999988079},{""page_index"":2,""viewing_time"":23733.90000000596},{""page_index"":3,""viewing_time"":10564.59999999404},{""page_index"":4,""viewing_time"":21469.20000000298},{""page_index"":5,""viewing_time"":10455.20000000298},{""page_index"":6,""viewing_time"":8434.59999999404},{""page_index"":7,""viewing_time"":9089.40000000596},{""page_index"":8,""viewing_time"":4750.5}]",,,,,,,,,,,,,,,
139,survey-multi-choice,3,142699,07ab9n0v00w6wfd,62a7a6baf839fe2d4207b124,0,12975.59999999404,,,"{""Q0"":""The most likely category, or categories, of an image and the associated probability of the selected categories."",""Q1"":""100 crowdsourced workers.""}","[0,1]",,,,,,,,,,,,,
140,instructions,4,145660,07ab9n0v00w6wfd,62a7a6baf839fe2d4207b124,0,2957.0999999940395,,"[{""page_index"":0,""viewing_time"":2956.7999999970198}]",,,,,,,,,,,,,,,
141,preload,5,147705,07ab9n0v00w6wfd,62a7a6baf839fe2d4207b124,0,,,,,,True,False,[],[],[],,,,,,,,
142,survey-html-form,6,187447,07ab9n0v00w6wfd,62a7a6baf839fe2d4207b124,0,39733.90000000596,,,"{""classSelect"":""mostProbHorse"",""prob"":""100"",""classSelect2"":""secondProbDeer"",""prob2"":""10"",""improbClassSelectDog"":""1""}",,,,,,,mixed_0.25_Horse_2004_Ship_3552.png,spec_conf,,Horse,Ship,0.25,2004.0,3552.0
143,survey-html-form,7,203368,07ab9n0v00w6wfd,62a7a6baf839fe2d4207b124,0,15914.20000000298,,,"{""classSelect"":""mostProbHorse"",""prob"":""90"",""classSelect2"":""secondProbDeer"",""prob2"":""10"",""improbClassSelectDog"":""1""}",,,,,,,mixed_0.25_Cat_515_Horse_4046.png,spec_conf,,Cat,Horse,0.25,515.0,4046.0
144,survey-html-form,8,256664,07ab9n0v00w6wfd,62a7a6baf839fe2d4207b124,0,53291.70000000298,,,"{""classSelect"":""mostProbBird"",""prob"":""60"",""classSelect2"":""secondProbAirplane"",""prob2"":""20"",""improbClassSelectCat"":""1"",""improbClassSelectFrog"":""1"",""improbClassSelectAutomobile"":""1"",""improbClassSelectTruck"":""1"",""improbClassSelectHorse"":""1"",""improbClassSelectShip"":""1"",""improbClassSelectDeer"":""1"",""improbClassSelectDog"":""1""}",,,,,,,mixed_0.5_Airplane_6494_Deer_3507.png,spec_conf,,Airplane,Deer,0.5,6494.0,3507.0
145,survey-html-form,9,290924,07ab9n0v00w6wfd,62a7a6baf839fe2d4207b124,0,34255.19999998808,,,"{""classSelect"":""mostProbCat"",""prob"":""50"",""classSelect2"":""secondProbDog"",""prob2"":""50"",""improbClassSelectFrog"":""1"",""improbClassSelectAutomobile"":""1"",""improbClassSelectTruck"":""1"",""improbClassSelectAirplane"":""1"",""improbClassSelectShip"":""1"",""improbClassSelectBird"":""1""}",,,,,,,mixed_0.75_Dog_6065_Frog_772.png,spec_conf,,Dog,Frog,0.75,6065.0,772.0
146,survey-html-form,10,327099,07ab9n0v00w6wfd,62a7a6baf839fe2d4207b124,0,36171.0,,,"{""classSelect"":""mostProbBird"",""prob"":""80"",""classSelect2"":""secondProbNo"",""prob2"":""0"",""improbClassSelectCat"":""1"",""improbClassSelectFrog"":""1"",""improbClassSelectAutomobile"":""1"",""improbClassSelectTruck"":""1"",""improbClassSelectHorse"":""1"",""improbClassSelectAirplane"":""1"",""improbClassSelectShip"":""1"",""improbClassSelectDeer"":""1"",""improbClassSelectDog"":""1""}",,,,,,,mixed_0.75_Bird_2199_Dog_6782.png,spec_conf,,Bird,Dog,0.75,2199.0,6782.0
147,survey-html-form,11,362300,07ab9n0v00w6wfd,62a7a6baf839fe2d4207b124,0,35196.29999999702,,,"{""classSelect"":""mostProbAirplane"",""prob"":""30"",""classSelect2"":""secondProbShip"",""prob2"":""20"",""improbClassSelectCat"":""1"",""improbClassSelectHorse"":""1"",""improbClassSelectBird"":""1"",""improbClassSelectDeer"":""1"",""improbClassSelectDog"":""1""}",,,,,,,mixed_0.25_Dog_8172_Truck_5736.png,spec_conf,,Dog,Truck,0.25,8172.0,5736.0
148,survey-html-form,12,382339,07ab9n0v00w6wfd,62a7a6baf839fe2d4207b124,0,20033.70000000298,,,"{""classSelect"":""mostProbHorse"",""prob"":""100"",""classSelect2"":""secondProbNo"",""prob2"":""0"",""improbClassSelectCat"":""1"",""improbClassSelectFrog"":""1"",""improbClassSelectAutomobile"":""1"",""improbClassSelectTruck"":""1"",""improbClassSelectAirplane"":""1"",""improbClassSelectShip"":""1"",""improbClassSelectDeer"":""1"",""improbClassSelectDog"":""1""}",,,,,,,mixed_0.75_Horse_2004_Ship_3552.png,spec_conf,,Horse,Ship,0.75,2004.0,3552.0
149,survey-html-form,13,408742,07ab9n0v00w6wfd,62a7a6baf839fe2d4207b124,0,26398.59999999404,,,"{""classSelect"":""mostProbShip"",""prob"":""60"",""classSelect2"":""secondProbNo"",""prob2"":""0"",""improbClassSelectCat"":""1"",""improbClassSelectFrog"":""1"",""improbClassSelectAutomobile"":""1"",""improbClassSelectTruck"":""1"",""improbClassSelectHorse"":""1"",""improbClassSelectShip"":""1"",""improbClassSelectBird"":""1"",""improbClassSelectDeer"":""1"",""improbClassSelectDog"":""1""}",,,,,,,mixed_0.5_Cat_6293_Ship_5526.png,spec_conf,,Cat,Ship,0.5,6293.0,5526.0
150,survey-html-form,14,450771,07ab9n0v00w6wfd,62a7a6baf839fe2d4207b124,0,42023.5,,,"{""classSelect"":""mostProbDeer"",""prob"":""40"",""classSelect2"":""secondProbDog"",""prob2"":""20"",""improbClassSelectFrog"":""1"",""improbClassSelectAutomobile"":""1"",""improbClassSelectTruck"":""1"",""improbClassSelectAirplane"":""1"",""improbClassSelectShip"":""1"",""improbClassSelectBird"":""1""}",,,,,,,mixed_0.5_Deer_2699_Frog_4265.png,spec_conf,,Deer,Frog,0.5,2699.0,4265.0
151,survey-html-form,15,476685,07ab9n0v00w6wfd,62a7a6baf839fe2d4207b124,0,25909.59999999404,,,"{""classSelect"":""mostProbShip"",""prob"":""60"",""classSelect2"":""secondProbAirplane"",""prob2"":""10"",""improbClassSelectCat"":""1"",""improbClassSelectFrog"":""1"",""improbClassSelectTruck"":""1"",""improbClassSelectHorse"":""1"",""improbClassSelectBird"":""1"",""improbClassSelectDeer"":""1"",""improbClassSelectDog"":""1""}",,,,,,,mixed_0.25_Cat_811_Ship_724.png,spec_conf,,Cat,Ship,0.25,811.0,724.0
152,survey-html-form,16,499846,07ab9n0v00w6wfd,62a7a6baf839fe2d4207b124,0,23156.60000000894,,,"{""classSelect"":""mostProbAutomobile"",""prob"":""100"",""classSelect2"":""secondProbNo"",""prob2"":""0"",""improbClassSelectCat"":""1"",""improbClassSelectFrog"":""1"",""improbClassSelectHorse"":""1"",""improbClassSelectAirplane"":""1"",""improbClassSelectShip"":""1"",""improbClassSelectBird"":""1"",""improbClassSelectDeer"":""1"",""improbClassSelectDog"":""1""}",,,,,,,mixed_0.75_Automobile_2484_Truck_1697.png,spec_conf,,Automobile,Truck,0.75,2484.0,1697.0
153,survey-html-form,17,525163,07ab9n0v00w6wfd,62a7a6baf839fe2d4207b124,0,25311.0,,,"{""classSelect"":""mostProbAutomobile"",""prob"":""80"",""classSelect2"":""secondProbTruck"",""prob2"":""20"",""improbClassSelectCat"":""1"",""improbClassSelectFrog"":""1"",""improbClassSelectHorse"":""1"",""improbClassSelectAirplane"":""1"",""improbClassSelectShip"":""1"",""improbClassSelectBird"":""1"",""improbClassSelectDeer"":""1"",""improbClassSelectDog"":""1""}",,,,,,,mixed_0.75_Automobile_3565_Dog_3849.png,spec_conf,,Automobile,Dog,0.75,3565.0,3849.0
154,survey-html-form,18,550411,07ab9n0v00w6wfd,62a7a6baf839fe2d4207b124,0,25241.79999999702,,,"{""classSelect"":""mostProbShip"",""prob"":""50"",""classSelect2"":""secondProbAirplane"",""prob2"":""20"",""improbClassSelectCat"":""1"",""improbClassSelectFrog"":""1"",""improbClassSelectHorse"":""1"",""improbClassSelectBird"":""1"",""improbClassSelectDeer"":""1"",""improbClassSelectDog"":""1""}",,,,,,,mixed_0.5_Frog_8792_Ship_2921.png,spec_conf,,Frog,Ship,0.5,8792.0,2921.0
155,survey-html-form,19,576018,07ab9n0v00w6wfd,62a7a6baf839fe2d4207b124,0,25602.69999998808,,,"{""classSelect"":""mostProbBird"",""prob"":""20"",""classSelect2"":""secondProbHorse"",""prob2"":""10"",""improbClassSelectAutomobile"":""1"",""improbClassSelectTruck"":""1""}",,,,,,,mixed_0.25_Cat_8023_Dog_4988.png,spec_conf,,Cat,Dog,0.25,8023.0,4988.0
156,survey-html-form,20,591480,07ab9n0v00w6wfd,62a7a6baf839fe2d4207b124,0,15458.30000001192,,,"{""classSelect"":""mostProbFrog"",""prob"":""20"",""classSelect2"":""secondProbBird"",""prob2"":""10"",""improbClassSelectAirplane"":""1""}",,,,,,,mixed_0.25_Cat_1121_Frog_891.png,spec_conf,,Cat,Frog,0.25,1121.0,891.0
157,survey-html-form,21,607808,07ab9n0v00w6wfd,62a7a6baf839fe2d4207b124,0,16322.70000000298,,,"{""classSelect"":""mostProbHorse"",""prob"":""100"",""classSelect2"":""secondProbNo"",""prob2"":"""",""improbClassSelectCat"":""1"",""improbClassSelectFrog"":""1"",""improbClassSelectAutomobile"":""1"",""improbClassSelectTruck"":""1"",""improbClassSelectAirplane"":""1"",""improbClassSelectShip"":""1"",""improbClassSelectBird"":""1"",""improbClassSelectDeer"":""1"",""improbClassSelectDog"":""1""}",,,,,,,mixed_0.25_Frog_2237_Horse_326.png,spec_conf,,Frog,Horse,0.25,2237.0,326.0
158,survey-html-form,22,624002,07ab9n0v00w6wfd,62a7a6baf839fe2d4207b124,0,16188.29999999702,,,"{""classSelect"":""mostProbDog"",""prob"":""40"",""classSelect2"":""secondProbCat"",""prob2"":""10"",""improbClassSelectAirplane"":""1""}",,,,,,,mixed_0.5_Bird_7562_Truck_2810.png,spec_conf,,Bird,Truck,0.5,7562.0,2810.0
159,survey-html-form,23,640189,07ab9n0v00w6wfd,62a7a6baf839fe2d4207b124,0,16182.29999999702,,,"{""classSelect"":""mostProbShip"",""prob"":""10"",""classSelect2"":""secondProbAirplane"",""prob2"":""10"",""improbClassSelectBird"":""1""}",,,,,,,mixed_0.5_Automobile_1405_Frog_8984.png,spec_conf,,Automobile,Frog,0.5,1405.0,8984.0
160,survey-html-form,24,652562,07ab9n0v00w6wfd,62a7a6baf839fe2d4207b124,0,12369.59999999404,,,"{""classSelect"":""mostProbBird"",""prob"":""10"",""classSelect2"":""secondProbHorse"",""prob2"":""10"",""improbClassSelectShip"":""1""}",,,,,,,mixed_0.25_Frog_5175_Truck_6963.png,spec_conf,,Frog,Truck,0.25,5175.0,6963.0
161,survey-html-form,25,670869,07ab9n0v00w6wfd,62a7a6baf839fe2d4207b124,0,18303.69999998808,,,"{""classSelect"":""mostProbCat"",""prob"":""90"",""classSelect2"":""secondProbDog"",""prob2"":""10"",""improbClassSelectAutomobile"":""1"",""improbClassSelectTruck"":""1"",""improbClassSelectAirplane"":""1""}",,,,,,,mixed_0.75_Cat_3572_Dog_6564.png,spec_conf,,Cat,Dog,0.75,3572.0,6564.0
162,survey-html-form,26,687624,07ab9n0v00w6wfd,62a7a6baf839fe2d4207b124,0,16749.79999999702,,,"{""classSelect"":""mostProbTruck"",""prob"":""70"",""classSelect2"":""secondProbAutomobile"",""prob2"":""20"",""improbClassSelectCat"":""1"",""improbClassSelectFrog"":""1"",""improbClassSelectBird"":""1"",""improbClassSelectDeer"":""1"",""improbClassSelectDog"":""1""}",,,,,,,mixed_0.5_Ship_7502_Truck_9060.png,spec_conf,,Ship,Truck,0.5,7502.0,9060.0
163,survey-html-form,27,769213,07ab9n0v00w6wfd,62a7a6baf839fe2d4207b124,0,81585.19999998808,,,"{""classSelect"":""mostProbCat"",""prob"":""10"",""classSelect2"":""secondProbDog"",""prob2"":""10"",""improbClassSelectAutomobile"":""1"",""improbClassSelectTruck"":""1"",""improbClassSelectAirplane"":""1"",""improbClassSelectShip"":""1""}",,,,,,,mixed_0.5_Ship_9885_Truck_2810.png,spec_conf,,Ship,Truck,0.5,9885.0,2810.0
164,survey-html-form,28,785398,07ab9n0v00w6wfd,62a7a6baf839fe2d4207b124,0,16179.5,,,"{""classSelect"":""mostProbTruck"",""prob"":""100"",""classSelect2"":""secondProbNo"",""prob2"":"""",""improbClassSelectCat"":""1"",""improbClassSelectFrog"":""1"",""improbClassSelectHorse"":""1"",""improbClassSelectShip"":""1"",""improbClassSelectBird"":""1"",""improbClassSelectDeer"":""1"",""improbClassSelectDog"":""1""}",,,,,,,mixed_0.25_Ship_8717_Truck_8922.png,spec_conf,,Ship,Truck,0.25,8717.0,8922.0
165,survey-html-form,29,803779,07ab9n0v00w6wfd,62a7a6baf839fe2d4207b124,0,18377.60000000894,,,"{""classSelect"":""mostProbHorse"",""prob"":""100"",""classSelect2"":""secondProbNo"",""prob2"":"""",""improbClassSelectCat"":""1"",""improbClassSelectFrog"":""1"",""improbClassSelectAutomobile"":""1"",""improbClassSelectTruck"":""1"",""improbClassSelectAirplane"":""1"",""improbClassSelectShip"":""1"",""improbClassSelectBird"":""1"",""improbClassSelectDeer"":""1"",""improbClassSelectDog"":""1""}",,,,,,,mixed_0.5_Deer_9711_Horse_3187.png,spec_conf,,Deer,Horse,0.5,9711.0,3187.0
166,survey-html-form,30,823400,07ab9n0v00w6wfd,62a7a6baf839fe2d4207b124,0,19615.5,,,"{""classSelect"":""mostProbBird"",""prob"":""100"",""classSelect2"":""secondProbNo"",""prob2"":"""",""improbClassSelectCat"":""1"",""improbClassSelectFrog"":""1"",""improbClassSelectAutomobile"":""1"",""improbClassSelectTruck"":""1"",""improbClassSelectHorse"":""1"",""improbClassSelectAirplane"":""1"",""improbClassSelectShip"":""1"",""improbClassSelectDeer"":""1"",""improbClassSelectDog"":""1""}",,,,,,,mixed_0.5_Horse_8943_Ship_5207.png,spec_conf,,Horse,Ship,0.5,8943.0,5207.0
167,survey-html-form,31,841768,07ab9n0v00w6wfd,62a7a6baf839fe2d4207b124,0,18363.0,,,"{""classSelect"":""mostProbTruck"",""prob"":""60"",""classSelect2"":""secondProbAirplane"",""prob2"":""20"",""improbClassSelectCat"":""1"",""improbClassSelectFrog"":""1"",""improbClassSelectBird"":""1"",""improbClassSelectDeer"":""1"",""improbClassSelectDog"":""1""}",,,,,,,mixed_0.25_Dog_8172_Truck_5736.png,rerun_spec_conf,,Dog,Truck,0.25,8172.0,5736.0
168,survey-html-form,32,857502,07ab9n0v00w6wfd,62a7a6baf839fe2d4207b124,0,15729.79999999702,,,"{""classSelect"":""mostProbAutomobile"",""prob"":""100"",""classSelect2"":""secondProbNo"",""prob2"":"""",""improbClassSelectCat"":""1"",""improbClassSelectFrog"":""1"",""improbClassSelectTruck"":""1"",""improbClassSelectHorse"":""1"",""improbClassSelectAirplane"":""1"",""improbClassSelectShip"":""1"",""improbClassSelectBird"":""1"",""improbClassSelectDeer"":""1"",""improbClassSelectDog"":""1""}",,,,,,,mixed_0.75_Automobile_2484_Truck_1697.png,rerun_spec_conf,,Automobile,Truck,0.75,2484.0,1697.0
169,survey-text,33,882273,07ab9n0v00w6wfd,62a7a6baf839fe2d4207b124,0,24755.29999999702,,,"{""Q0"":""10"",""Q1"":""8"",""Q2"":""no"",""Q3"":""no"",""Q4"":""no"",""Q5"":""""}",,,,,,,,,,,,,,
170,pavlovia,0,2476,5ry47t69q6dafjn,62a7a6baf839fe2d4207b124,3,,,,,,,,,,,,,,,,,,
171,external-html,1,11614,5ry47t69q6dafjn,62a7a6baf839fe2d4207b124,3,9006.099999964237,consent.html,,,,,,,,,,,,,,,,
172,instructions,2,117497,5ry47t69q6dafjn,62a7a6baf839fe2d4207b124,3,105881.69999998808,,"[{""page_index"":0,""viewing_time"":5970.599999964237},{""page_index"":1,""viewing_time"":4920.100000023842},{""page_index"":2,""viewing_time"":32854.10000002384},{""page_index"":3,""viewing_time"":18940.099999964237},{""page_index"":4,""viewing_time"":14185.699999988079},{""page_index"":5,""viewing_time"":10432.100000023842},{""page_index"":6,""viewing_time"":7933.899999976158},{""page_index"":7,""viewing_time"":8156.400000035763},{""page_index"":8,""viewing_time"":2487.800000011921}]",,,,,,,,,,,,,,,
173,survey-multi-choice,3,129207,5ry47t69q6dafjn,62a7a6baf839fe2d4207b124,3,11708.0,,,"{""Q0"":""The most likely category, or categories, of an image and the associated probability of the selected categories."",""Q1"":""100 crowdsourced workers.""}","[0,1]",,,,,,,,,,,,,
174,instructions,4,131616,5ry47t69q6dafjn,62a7a6baf839fe2d4207b124,3,2407.300000011921,,"[{""page_index"":0,""viewing_time"":2407.100000023842}]",,,,,,,,,,,,,,,
175,preload,5,132641,5ry47t69q6dafjn,62a7a6baf839fe2d4207b124,3,,,,,,True,False,[],[],[],,,,,,,,
176,survey-html-form,6,170594,5ry47t69q6dafjn,62a7a6baf839fe2d4207b124,3,37950.69999998808,,,"{""classSelect"":""mostProbHorse"",""prob"":""25"",""classSelect2"":""secondProbShip"",""prob2"":""5""}",,,,,,,mixed_0.5_Dog_2650_Ship_2847.png,spec_conf,,Dog,Ship,0.5,2650.0,2847.0
177,survey-html-form,7,191924,5ry47t69q6dafjn,62a7a6baf839fe2d4207b124,3,21323.900000035763,,,"{""classSelect"":""mostProbAirplane"",""prob"":""40"",""classSelect2"":""secondProbShip"",""prob2"":""10""}",,,,,,,mixed_0.5_Airplane_9354_Automobile_7484.png,spec_conf,,Airplane,Automobile,0.5,9354.0,7484.0
178,survey-html-form,8,210838,5ry47t69q6dafjn,62a7a6baf839fe2d4207b124,3,18910.80000001192,,,"{""classSelect"":""mostProbAirplane"",""prob"":""70"",""classSelect2"":""secondProbAutomobile"",""prob2"":""10"",""improbClassSelectDog"":""1"",""improbClassSelectCat"":""1"",""improbClassSelectDeer"":""1"",""improbClassSelectFrog"":""1"",""improbClassSelectHorse"":""1""}",,,,,,,mixed_0.75_Airplane_7987_Dog_4906.png,spec_conf,,Airplane,Dog,0.75,7987.0,4906.0
179,survey-html-form,9,265028,5ry47t69q6dafjn,62a7a6baf839fe2d4207b124,3,54186.69999998808,,,"{""classSelect"":""mostProbDeer"",""prob"":""70"",""classSelect2"":""secondProbDog"",""prob2"":""20""}",,,,,,,mixed_0.5_Deer_1118_Ship_6839.png,spec_conf,,Deer,Ship,0.5,1118.0,6839.0
180,survey-html-form,10,277736,5ry47t69q6dafjn,62a7a6baf839fe2d4207b124,3,12704.5,,,"{""classSelect"":""mostProbHorse"",""prob"":""90"",""classSelect2"":""secondProbNo"",""prob2"":""""}",,,,,,,mixed_0.5_Bird_7590_Horse_8660.png,spec_conf,,Bird,Horse,0.5,7590.0,8660.0
181,survey-html-form,11,302890,5ry47t69q6dafjn,62a7a6baf839fe2d4207b124,3,25150.79999995232,,,"{""classSelect"":""mostProbTruck"",""prob"":""40"",""classSelect2"":""secondProbAutomobile"",""prob2"":""20""}",,,,,,,mixed_0.25_Horse_4183_Truck_394.png,spec_conf,,Horse,Truck,0.25,4183.0,394.0
182,survey-html-form,12,317478,5ry47t69q6dafjn,62a7a6baf839fe2d4207b124,3,14584.599999964235,,,"{""classSelect"":""mostProbTruck"",""prob"":""70"",""classSelect2"":""secondProbNo"",""prob2"":""""}",,,,,,,mixed_0.75_Airplane_6970_Truck_9177.png,spec_conf,,Airplane,Truck,0.75,6970.0,9177.0
183,survey-html-form,13,356008,5ry47t69q6dafjn,62a7a6baf839fe2d4207b124,3,38526.60000002384,,,"{""classSelect"":""mostProbCat"",""prob"":""20"",""classSelect2"":""secondProbDog"",""prob2"":""20""}",,,,,,,mixed_0.5_Horse_57_Ship_2476.png,spec_conf,,Horse,Ship,0.5,57.0,2476.0
184,survey-html-form,14,376622,5ry47t69q6dafjn,62a7a6baf839fe2d4207b124,3,20610.69999998808,,,"{""classSelect"":""mostProbAutomobile"",""prob"":""100"",""classSelect2"":""secondProbNo"",""prob2"":""""}",,,,,,,mixed_0.75_Automobile_894_Ship_80.png,spec_conf,,Automobile,Ship,0.75,894.0,80.0
185,survey-html-form,15,406198,5ry47t69q6dafjn,62a7a6baf839fe2d4207b124,3,29572.30000001192,,,"{""classSelect"":""mostProbFrog"",""prob"":""80"",""classSelect2"":""secondProbBird"",""prob2"":""10"",""improbClassSelectAirplane"":""1"",""improbClassSelectAutomobile"":""1"",""improbClassSelectShip"":""1"",""improbClassSelectTruck"":""1""}",,,,,,,mixed_0.25_Bird_5258_Frog_2549.png,spec_conf,,Bird,Frog,0.25,5258.0,2549.0
186,survey-html-form,16,418124,5ry47t69q6dafjn,62a7a6baf839fe2d4207b124,3,11923.0,,,"{""classSelect"":""mostProbDog"",""prob"":""10"",""classSelect2"":""secondProbCat"",""prob2"":""10""}",,,,,,,mixed_0.5_Cat_5029_Deer_346.png,spec_conf,,Cat,Deer,0.5,5029.0,346.0
187,survey-html-form,17,444378,5ry47t69q6dafjn,62a7a6baf839fe2d4207b124,3,26250.89999997616,,,"{""classSelect"":""mostProbAutomobile"",""prob"":""20"",""classSelect2"":""secondProbTruck"",""prob2"":""10""}",,,,,,,mixed_0.25_Bird_1257_Ship_4709.png,spec_conf,,Bird,Ship,0.25,1257.0,4709.0
188,survey-html-form,18,463896,5ry47t69q6dafjn,62a7a6baf839fe2d4207b124,3,19518.59999996424,,,"{""classSelect"":""mostProbFrog"",""prob"":""60"",""classSelect2"":""secondProbNo"",""prob2"":"""",""improbClassSelectAirplane"":""1"",""improbClassSelectAutomobile"":""1"",""improbClassSelectShip"":""1"",""improbClassSelectTruck"":""1""}",,,,,,,mixed_0.25_Automobile_5456_Frog_7606.png,spec_conf,,Automobile,Frog,0.25,5456.0,7606.0
189,survey-html-form,19,483429,5ry47t69q6dafjn,62a7a6baf839fe2d4207b124,3,19536.60000002384,,,"{""classSelect"":""mostProbCat"",""prob"":""20"",""classSelect2"":""secondProbBird"",""prob2"":""5""}",,,,,,,mixed_0.75_Bird_354_Deer_6507.png,spec_conf,,Bird,Deer,0.75,354.0,6507.0
190,survey-html-form,20,521692,5ry47t69q6dafjn,62a7a6baf839fe2d4207b124,3,38263.0,,,"{""classSelect"":""mostProbBird"",""prob"":""30"",""classSelect2"":""secondProbAirplane"",""prob2"":""10""}",,,,,,,mixed_0.5_Airplane_8812_Bird_3076.png,spec_conf,,Airplane,Bird,0.5,8812.0,3076.0
191,survey-html-form,21,542425,5ry47t69q6dafjn,62a7a6baf839fe2d4207b124,3,20730.89999997616,,,"{""classSelect"":""mostProbTruck"",""prob"":""90"",""classSelect2"":""secondProbAutomobile"",""prob2"":""10"",""improbClassSelectDog"":""1"",""improbClassSelectBird"":""1"",""improbClassSelectCat"":""1"",""improbClassSelectAirplane"":""1"",""improbClassSelectDeer"":""1"",""improbClassSelectFrog"":""1"",""improbClassSelectShip"":""1"",""improbClassSelectHorse"":""1""}",,,,,,,mixed_0.25_Cat_4526_Truck_6672.png,spec_conf,,Cat,Truck,0.25,4526.0,6672.0
192,survey-html-form,22,570435,5ry47t69q6dafjn,62a7a6baf839fe2d4207b124,3,28007.0,,,"{""classSelect"":""mostProbAutomobile"",""prob"":""10"",""classSelect2"":""secondProbFrog"",""prob2"":""5""}",,,,,,,mixed_0.5_Automobile_3027_Frog_3286.png,spec_conf,,Automobile,Frog,0.5,3027.0,3286.0
193,survey-html-form,23,612881,5ry47t69q6dafjn,62a7a6baf839fe2d4207b124,3,42442.80000001192,,,"{""classSelect"":""mostProbHorse"",""prob"":""80"",""classSelect2"":""secondProbDeer"",""prob2"":""10"",""improbClassSelectBird"":""1"",""improbClassSelectAirplane"":""1"",""improbClassSelectFrog"":""1"",""improbClassSelectAutomobile"":""1"",""improbClassSelectShip"":""1"",""improbClassSelectTruck"":""1""}",,,,,,,mixed_0.5_Automobile_4927_Horse_7379.png,spec_conf,,Automobile,Horse,0.5,4927.0,7379.0
194,survey-html-form,24,635244,5ry47t69q6dafjn,62a7a6baf839fe2d4207b124,3,22360.80000001192,,,"{""classSelect"":""mostProbBird"",""prob"":""10"",""classSelect2"":""secondProbAirplane"",""prob2"":""10""}",,,,,,,mixed_0.5_Airplane_7449_Bird_7771.png,spec_conf,,Airplane,Bird,0.5,7449.0,7771.0
195,survey-html-form,25,683506,5ry47t69q6dafjn,62a7a6baf839fe2d4207b124,3,48259.0,,,"{""classSelect"":""mostProbDog"",""prob"":""90"",""classSelect2"":""secondProbCat"",""prob2"":""10"",""improbClassSelectAirplane"":""1"",""improbClassSelectAutomobile"":""1"",""improbClassSelectShip"":""1"",""improbClassSelectTruck"":""1""}",,,,,,,mixed_0.75_Dog_8172_Truck_5736.png,spec_conf,,Dog,Truck,0.75,8172.0,5736.0
196,survey-html-form,26,697768,5ry47t69q6dafjn,62a7a6baf839fe2d4207b124,3,14259.0,,,"{""classSelect"":""mostProbBird"",""prob"":""70"",""classSelect2"":""secondProbNo"",""prob2"":"""",""improbClassSelectAirplane"":""1"",""improbClassSelectAutomobile"":""1"",""improbClassSelectShip"":""1"",""improbClassSelectTruck"":""1""}",,,,,,,mixed_0.5_Bird_8730_Truck_7967.png,spec_conf,,Bird,Truck,0.5,8730.0,7967.0
197,survey-html-form,27,739534,5ry47t69q6dafjn,62a7a6baf839fe2d4207b124,3,41762.69999998808,,,"{""classSelect"":""mostProbDog"",""prob"":""20"",""classSelect2"":""secondProbCat"",""prob2"":""10""}",,,,,,,mixed_0.75_Dog_6094_Truck_3288.png,spec_conf,,Dog,Truck,0.75,6094.0,3288.0
198,survey-html-form,28,752741,5ry47t69q6dafjn,62a7a6baf839fe2d4207b124,3,13204.899999976158,,,"{""classSelect"":""mostProbFrog"",""prob"":""50"",""classSelect2"":""secondProbBird"",""prob2"":""5""}",,,,,,,mixed_0.5_Cat_6792_Frog_4698.png,spec_conf,,Cat,Frog,0.5,6792.0,4698.0
199,survey-html-form,29,765947,5ry47t69q6dafjn,62a7a6baf839fe2d4207b124,3,13202.19999998808,,,"{""classSelect"":""mostProbAirplane"",""prob"":""20"",""classSelect2"":""secondProbAutomobile"",""prob2"":""10""}",,,,,,,mixed_0.5_Automobile_4549_Cat_1377.png,spec_conf,,Automobile,Cat,0.5,4549.0,1377.0
200,survey-html-form,30,809277,5ry47t69q6dafjn,62a7a6baf839fe2d4207b124,3,43327.90000003576,,,"{""classSelect"":""mostProbHorse"",""prob"":""100"",""classSelect2"":""secondProbNo"",""prob2"":"""",""improbClassSelectDog"":""1"",""improbClassSelectBird"":""1"",""improbClassSelectCat"":""1"",""improbClassSelectAirplane"":""1"",""improbClassSelectDeer"":""1"",""improbClassSelectFrog"":""1"",""improbClassSelectAutomobile"":""1"",""improbClassSelectShip"":""1"",""improbClassSelectTruck"":""1""}",,,,,,,mixed_0.5_Horse_9444_Truck_853.png,spec_conf,,Horse,Truck,0.5,9444.0,853.0
201,survey-html-form,31,828073,5ry47t69q6dafjn,62a7a6baf839fe2d4207b124,3,18792.30000001192,,,"{""classSelect"":""mostProbTruck"",""prob"":""40"",""classSelect2"":""secondProbAutomobile"",""prob2"":""30"",""improbClassSelectDog"":""1"",""improbClassSelectBird"":""1"",""improbClassSelectCat"":""1"",""improbClassSelectAirplane"":""1"",""improbClassSelectDeer"":""1"",""improbClassSelectFrog"":""1"",""improbClassSelectShip"":""1"",""improbClassSelectHorse"":""1""}",,,,,,,mixed_0.25_Horse_4183_Truck_394.png,rerun_spec_conf,,Horse,Truck,0.25,4183.0,394.0
202,survey-html-form,32,837741,5ry47t69q6dafjn,62a7a6baf839fe2d4207b124,3,9665.19999998808,,,"{""classSelect"":""mostProbDog"",""prob"":""20"",""classSelect2"":""secondProbCat"",""prob2"":""10""}",,,,,,,mixed_0.5_Cat_5029_Deer_346.png,rerun_spec_conf,,Cat,Deer,0.5,5029.0,346.0
203,survey-text,33,868740,5ry47t69q6dafjn,62a7a6baf839fe2d4207b124,3,30975.400000035763,,,"{""Q0"":""10"",""Q1"":""4"",""Q2"":""no"",""Q3"":""no"",""Q4"":""no"",""Q5"":""n/a""}",,,,,,,,,,,,,,
204,pavlovia,0,1586,mss2hg8z3b7vqsh,62a7a6baf839fe2d4207b124,0,,,,,,,,,,,,,,,,,,
205,external-html,1,8655,mss2hg8z3b7vqsh,62a7a6baf839fe2d4207b124,0,6826.699999928474,consent.html,,,,,,,,,,,,,,,,
206,instructions,2,81857,mss2hg8z3b7vqsh,62a7a6baf839fe2d4207b124,0,73202.80000007153,,"[{""page_index"":0,""viewing_time"":6600.600000023842},{""page_index"":1,""viewing_time"":9297.5},{""page_index"":2,""viewing_time"":12966.100000023842},{""page_index"":3,""viewing_time"":4643.899999976158},{""page_index"":4,""viewing_time"":12886.299999952316},{""page_index"":5,""viewing_time"":9605.900000095367},{""page_index"":6,""viewing_time"":2219.7999999523163},{""page_index"":7,""viewing_time"":12294},{""page_index"":8,""viewing_time"":2688.100000023842}]",,,,,,,,,,,,,,,
207,survey-multi-choice,3,91375,mss2hg8z3b7vqsh,62a7a6baf839fe2d4207b124,0,9516.800000071526,,,"{""Q0"":""The most likely category, or categories, of an image and the associated probability of the selected categories."",""Q1"":""100 crowdsourced workers.""}","[0,1]",,,,,,,,,,,,,
208,instructions,4,92943,mss2hg8z3b7vqsh,62a7a6baf839fe2d4207b124,0,1564.4000000953674,,"[{""page_index"":0,""viewing_time"":1564.2000000476837}]",,,,,,,,,,,,,,,
209,preload,5,95625,mss2hg8z3b7vqsh,62a7a6baf839fe2d4207b124,0,,,,,,True,False,[],[],[],,,,,,,,
210,survey-html-form,6,128248,mss2hg8z3b7vqsh,62a7a6baf839fe2d4207b124,0,32620.39999997616,,,"{""classSelect"":""mostProbDog"",""prob"":""75"",""classSelect2"":""secondProbHorse"",""prob2"":""10"",""improbClassSelectTruck"":""1"",""improbClassSelectShip"":""1"",""improbClassSelectAutomobile"":""1"",""improbClassSelectFrog"":""1"",""improbClassSelectAirplane"":""1""}",,,,,,,mixed_0.25_Cat_515_Horse_4046.png,spec_conf,,Cat,Horse,0.25,515.0,4046.0
211,survey-html-form,7,166164,mss2hg8z3b7vqsh,62a7a6baf839fe2d4207b124,0,37912.89999997616,,,"{""classSelect"":""mostProbShip"",""prob"":""35"",""classSelect2"":""secondProbAirplane"",""prob2"":""25"",""improbClassSelectTruck"":""1"",""improbClassSelectFrog"":""1""}",,,,,,,mixed_0.5_Ship_9885_Truck_2810.png,spec_conf,,Ship,Truck,0.5,9885.0,2810.0
212,survey-html-form,8,210613,mss2hg8z3b7vqsh,62a7a6baf839fe2d4207b124,0,44447.29999995232,,,"{""classSelect"":""mostProbHorse"",""prob"":""75"",""classSelect2"":""secondProbDeer"",""prob2"":""20"",""improbClassSelectTruck"":""1"",""improbClassSelectShip"":""1"",""improbClassSelectCat"":""1"",""improbClassSelectAutomobile"":""1"",""improbClassSelectAirplane"":""1""}",,,,,,,mixed_0.5_Deer_9711_Horse_3187.png,spec_conf,,Deer,Horse,0.5,9711.0,3187.0
213,survey-html-form,9,230616,mss2hg8z3b7vqsh,62a7a6baf839fe2d4207b124,0,20000.29999995232,,,"{""classSelect"":""mostProbAutomobile"",""prob"":""50"",""classSelect2"":""secondProbTruck"",""prob2"":""40"",""improbClassSelectDog"":""1"",""improbClassSelectCat"":""1"",""improbClassSelectFrog"":""1"",""improbClassSelectBird"":""1""}",,,,,,,mixed_0.25_Frog_5175_Truck_6963.png,spec_conf,,Frog,Truck,0.25,5175.0,6963.0
214,survey-html-form,10,261375,mss2hg8z3b7vqsh,62a7a6baf839fe2d4207b124,0,30756.0,,,"{""classSelect"":""mostProbShip"",""prob"":""100"",""classSelect2"":""secondProbNo"",""prob2"":"""",""improbClassSelectTruck"":""1"",""improbClassSelectDeer"":""1"",""improbClassSelectDog"":""1"",""improbClassSelectCat"":""1"",""improbClassSelectAutomobile"":""1"",""improbClassSelectFrog"":""1"",""improbClassSelectHorse"":""1"",""improbClassSelectBird"":""1"",""improbClassSelectAirplane"":""1""}",,,,,,,mixed_0.25_Cat_811_Ship_724.png,spec_conf,,Cat,Ship,0.25,811.0,724.0
215,survey-html-form,11,279226,mss2hg8z3b7vqsh,62a7a6baf839fe2d4207b124,0,17847.799999952316,,,"{""classSelect"":""mostProbCat"",""prob"":""65"",""classSelect2"":""secondProbFrog"",""prob2"":""20"",""improbClassSelectShip"":""1"",""improbClassSelectAirplane"":""1""}",,,,,,,mixed_0.75_Cat_3572_Dog_6564.png,spec_conf,,Cat,Dog,0.75,3572.0,6564.0
216,survey-html-form,12,298978,mss2hg8z3b7vqsh,62a7a6baf839fe2d4207b124,0,19749.699999928474,,,"{""classSelect"":""mostProbHorse"",""prob"":""50"",""classSelect2"":""secondProbDeer"",""prob2"":""50"",""improbClassSelectTruck"":""1"",""improbClassSelectShip"":""1"",""improbClassSelectAirplane"":""1""}",,,,,,,mixed_0.5_Airplane_6494_Deer_3507.png,spec_conf,,Airplane,Deer,0.5,6494.0,3507.0
217,survey-html-form,13,319020,mss2hg8z3b7vqsh,62a7a6baf839fe2d4207b124,0,20039.39999997616,,,"{""classSelect"":""mostProbShip"",""prob"":""55"",""classSelect2"":""secondProbAirplane"",""prob2"":""30"",""improbClassSelectFrog"":""1"",""improbClassSelectHorse"":""1""}",,,,,,,mixed_0.5_Cat_6293_Ship_5526.png,spec_conf,,Cat,Ship,0.5,6293.0,5526.0
218,survey-html-form,14,337675,mss2hg8z3b7vqsh,62a7a6baf839fe2d4207b124,0,18653.10000002384,,,"{""classSelect"":""mostProbFrog"",""prob"":""65"",""classSelect2"":""secondProbBird"",""prob2"":""25"",""improbClassSelectTruck"":""1"",""improbClassSelectShip"":""1"",""improbClassSelectAutomobile"":""1"",""improbClassSelectAirplane"":""1""}",,,,,,,mixed_0.25_Cat_1121_Frog_891.png,spec_conf,,Cat,Frog,0.25,1121.0,891.0
219,survey-html-form,15,367011,mss2hg8z3b7vqsh,62a7a6baf839fe2d4207b124,0,29333.900000095367,,,"{""classSelect"":""mostProbDeer"",""prob"":""45"",""classSelect2"":""secondProbShip"",""prob2"":""30"",""improbClassSelectAirplane"":""1""}",,,,,,,mixed_0.5_Frog_8792_Ship_2921.png,spec_conf,,Frog,Ship,0.5,8792.0,2921.0
220,survey-html-form,16,386259,mss2hg8z3b7vqsh,62a7a6baf839fe2d4207b124,0,19245.89999997616,,,"{""classSelect"":""mostProbAutomobile"",""prob"":""90"",""classSelect2"":""secondProbTruck"",""prob2"":""10"",""improbClassSelectShip"":""1"",""improbClassSelectDeer"":""1"",""improbClassSelectDog"":""1"",""improbClassSelectCat"":""1"",""improbClassSelectFrog"":""1"",""improbClassSelectHorse"":""1"",""improbClassSelectBird"":""1"",""improbClassSelectAirplane"":""1""}",,,,,,,mixed_0.75_Automobile_2484_Truck_1697.png,spec_conf,,Automobile,Truck,0.75,2484.0,1697.0
221,survey-html-form,17,409935,mss2hg8z3b7vqsh,62a7a6baf839fe2d4207b124,0,23673.89999997616,,,"{""classSelect"":""mostProbAirplane"",""prob"":""55"",""classSelect2"":""secondProbTruck"",""prob2"":""30"",""improbClassSelectDog"":""1"",""improbClassSelectCat"":""1"",""improbClassSelectHorse"":""1""}",,,,,,,mixed_0.5_Automobile_1405_Frog_8984.png,spec_conf,,Automobile,Frog,0.5,1405.0,8984.0
222,survey-html-form,18,432201,mss2hg8z3b7vqsh,62a7a6baf839fe2d4207b124,0,22263.79999995232,,,"{""classSelect"":""mostProbHorse"",""prob"":""95"",""classSelect2"":""secondProbDeer"",""prob2"":""5"",""improbClassSelectTruck"":""1"",""improbClassSelectShip"":""1"",""improbClassSelectAutomobile"":""1"",""improbClassSelectFrog"":""1"",""improbClassSelectBird"":""1"",""improbClassSelectAirplane"":""1""}",,,,,,,mixed_0.25_Frog_2237_Horse_326.png,spec_conf,,Frog,Horse,0.25,2237.0,326.0
223,survey-html-form,19,453663,mss2hg8z3b7vqsh,62a7a6baf839fe2d4207b124,0,21459.5,,,"{""classSelect"":""mostProbHorse"",""prob"":""75"",""classSelect2"":""secondProbDeer"",""prob2"":""20"",""improbClassSelectTruck"":""1"",""improbClassSelectShip"":""1"",""improbClassSelectAirplane"":""1""}",,,,,,,mixed_0.25_Horse_2004_Ship_3552.png,spec_conf,,Horse,Ship,0.25,2004.0,3552.0
224,survey-html-form,20,480473,mss2hg8z3b7vqsh,62a7a6baf839fe2d4207b124,0,26807.79999995232,,,"{""classSelect"":""mostProbBird"",""prob"":""45"",""classSelect2"":""secondProbFrog"",""prob2"":""40"",""improbClassSelectTruck"":""1"",""improbClassSelectShip"":""1"",""improbClassSelectDeer"":""1"",""improbClassSelectAutomobile"":""1"",""improbClassSelectAirplane"":""1""}",,,,,,,mixed_0.75_Dog_6065_Frog_772.png,spec_conf,,Dog,Frog,0.75,6065.0,772.0
225,survey-html-form,21,511943,mss2hg8z3b7vqsh,62a7a6baf839fe2d4207b124,0,31467.700000047684,,,"{""classSelect"":""mostProbAutomobile"",""prob"":""40"",""classSelect2"":""secondProbTruck"",""prob2"":""35"",""improbClassSelectShip"":""1"",""improbClassSelectAirplane"":""1""}",,,,,,,mixed_0.25_Dog_8172_Truck_5736.png,spec_conf,,Dog,Truck,0.25,8172.0,5736.0
226,survey-html-form,22,530417,mss2hg8z3b7vqsh,62a7a6baf839fe2d4207b124,0,18471.89999997616,,,"{""classSelect"":""mostProbFrog"",""prob"":""90"",""classSelect2"":""secondProbBird"",""prob2"":""10"",""improbClassSelectTruck"":""1"",""improbClassSelectShip"":""1"",""improbClassSelectDeer"":""1"",""improbClassSelectHorse"":""1"",""improbClassSelectBird"":""1"",""improbClassSelectAirplane"":""1""}",,,,,,,mixed_0.5_Deer_2699_Frog_4265.png,spec_conf,,Deer,Frog,0.5,2699.0,4265.0
227,survey-html-form,23,546167,mss2hg8z3b7vqsh,62a7a6baf839fe2d4207b124,0,15747.899999976158,,,"{""classSelect"":""mostProbDog"",""prob"":""75"",""classSelect2"":""secondProbCat"",""prob2"":""25"",""improbClassSelectTruck"":""1"",""improbClassSelectShip"":""1"",""improbClassSelectAutomobile"":""1"",""improbClassSelectAirplane"":""1""}",,,,,,,mixed_0.25_Cat_8023_Dog_4988.png,spec_conf,,Cat,Dog,0.25,8023.0,4988.0
228,survey-html-form,24,563743,mss2hg8z3b7vqsh,62a7a6baf839fe2d4207b124,0,17573.899999976158,,,"{""classSelect"":""mostProbFrog"",""prob"":""40"",""classSelect2"":""secondProbBird"",""prob2"":""35"",""improbClassSelectTruck"":""1"",""improbClassSelectAutomobile"":""1"",""improbClassSelectAirplane"":""1""}",,,,,,,mixed_0.5_Horse_8943_Ship_5207.png,spec_conf,,Horse,Ship,0.5,8943.0,5207.0
229,survey-html-form,25,590402,mss2hg8z3b7vqsh,62a7a6baf839fe2d4207b124,0,26656.0,,,"{""classSelect"":""mostProbTruck"",""prob"":""40"",""classSelect2"":""secondProbShip"",""prob2"":""35"",""improbClassSelectFrog"":""1"",""improbClassSelectBird"":""1""}",,,,,,,mixed_0.5_Bird_7562_Truck_2810.png,spec_conf,,Bird,Truck,0.5,7562.0,2810.0
230,survey-html-form,26,612818,mss2hg8z3b7vqsh,62a7a6baf839fe2d4207b124,0,22413.80000007153,,,"{""classSelect"":""mostProbHorse"",""prob"":""100"",""classSelect2"":""secondProbNo"",""prob2"":"""",""improbClassSelectTruck"":""1"",""improbClassSelectShip"":""1"",""improbClassSelectDog"":""1"",""improbClassSelectCat"":""1"",""improbClassSelectAutomobile"":""1"",""improbClassSelectFrog"":""1"",""improbClassSelectBird"":""1"",""improbClassSelectAirplane"":""1""}",,,,,,,mixed_0.75_Horse_2004_Ship_3552.png,spec_conf,,Horse,Ship,0.75,2004.0,3552.0
231,survey-html-form,27,633030,mss2hg8z3b7vqsh,62a7a6baf839fe2d4207b124,0,20209.700000047684,,,"{""classSelect"":""mostProbTruck"",""prob"":""75"",""classSelect2"":""secondProbAutomobile"",""prob2"":""25"",""improbClassSelectDeer"":""1"",""improbClassSelectDog"":""1"",""improbClassSelectCat"":""1"",""improbClassSelectFrog"":""1"",""improbClassSelectHorse"":""1"",""improbClassSelectBird"":""1"",""improbClassSelectAirplane"":""1""}",,,,,,,mixed_0.25_Ship_8717_Truck_8922.png,spec_conf,,Ship,Truck,0.25,8717.0,8922.0
