,index,trial_type,trial_index,time_elapsed,subject,study_id,condition,rt,url,view_history,response,question_order,success,timeout,failed_images,failed_audio,failed_video,task,class_pair
0,6,survey-html-form,6,119129,1j4yz66w4dwly8d,633e13ba656728259b9f46cb,5,13717.0,,,"{""select"":""select0.5""}",,,,,,,select_shuffled,Airplane_2589_Cat_6202
1,7,survey-html-form,7,129778,1j4yz66w4dwly8d,633e13ba656728259b9f46cb,5,10646.0,,,"{""select"":""select0.3""}",,,,,,,select_shuffled,Frog_2865_Horse_7935
2,8,survey-html-form,8,136146,1j4yz66w4dwly8d,633e13ba656728259b9f46cb,5,6365.0,,,"{""select"":""select0.4""}",,,,,,,select_shuffled,Airplane_2200_Ship_1281
3,9,survey-html-form,9,143212,1j4yz66w4dwly8d,633e13ba656728259b9f46cb,5,7063.0,,,"{""select"":""select0.9""}",,,,,,,select_shuffled,Cat_6705_Frog_783
4,10,survey-html-form,10,147295,1j4yz66w4dwly8d,633e13ba656728259b9f46cb,5,4081.0,,,"{""select"":""select0.4""}",,,,,,,select_shuffled,Automobile_1882_Deer_4227
5,11,survey-html-form,11,157445,1j4yz66w4dwly8d,633e13ba656728259b9f46cb,5,10148.0,,,"{""select"":""select0.6""}",,,,,,,select_shuffled,Bird_1043_Horse_5464
6,12,survey-html-form,12,162445,1j4yz66w4dwly8d,633e13ba656728259b9f46cb,5,4997.0,,,"{""select"":""select0.4""}",,,,,,,select_shuffled,Cat_9310_Ship_9491
7,13,survey-html-form,13,172929,1j4yz66w4dwly8d,633e13ba656728259b9f46cb,5,10481.0,,,"{""select"":""select0.5""}",,,,,,,select_shuffled,Automobile_7570_Cat_4094
8,14,survey-html-form,14,181195,1j4yz66w4dwly8d,633e13ba656728259b9f46cb,5,8264.0,,,"{""select"":""select0.8""}",,,,,,,select_shuffled,Airplane_2628_Frog_9653
9,15,survey-html-form,15,188229,1j4yz66w4dwly8d,633e13ba656728259b9f46cb,5,7030.0,,,"{""select"":""select0.6""}",,,,,,,select_shuffled,Horse_5096_Truck_9312
10,16,survey-html-form,16,195312,1j4yz66w4dwly8d,633e13ba656728259b9f46cb,5,7081.0,,,"{""select"":""select0.5""}",,,,,,,select_shuffled,Dog_2316_Horse_7086
11,17,survey-html-form,17,202663,1j4yz66w4dwly8d,633e13ba656728259b9f46cb,5,7348.0,,,"{""select"":""select0.6""}",,,,,,,select_shuffled,Horse_6044_Ship_7600
12,18,survey-html-form,18,211446,1j4yz66w4dwly8d,633e13ba656728259b9f46cb,5,8780.0,,,"{""select"":""select0.5""}",,,,,,,select_shuffled,Airplane_6491_Frog_8781
13,19,survey-html-form,19,219395,1j4yz66w4dwly8d,633e13ba656728259b9f46cb,5,7948.0,,,"{""select"":""select0.4""}",,,,,,,select_shuffled,Airplane_258_Truck_744
14,20,survey-html-form,20,224780,1j4yz66w4dwly8d,633e13ba656728259b9f46cb,5,5382.000000000029,,,"{""select"":""select0.6""}",,,,,,,select_shuffled,Ship_6691_Truck_5674
15,21,survey-html-form,21,231596,1j4yz66w4dwly8d,633e13ba656728259b9f46cb,5,6813.0,,,"{""select"":""select0.8""}",,,,,,,select_shuffled,Frog_4161_Truck_1439
16,22,survey-html-form,22,235330,1j4yz66w4dwly8d,633e13ba656728259b9f46cb,5,3731.0,,,"{""select"":""select0.4""}",,,,,,,select_shuffled,Horse_5558_Ship_7706
17,23,survey-html-form,23,238830,1j4yz66w4dwly8d,633e13ba656728259b9f46cb,5,3497.0,,,"{""select"":""select1.0""}",,,,,,,select_shuffled,Bird_7508_Frog_7690
18,24,survey-html-form,24,241446,1j4yz66w4dwly8d,633e13ba656728259b9f46cb,5,2614.000000000029,,,"{""select"":""select0.4""}",,,,,,,select_shuffled,Cat_2422_Truck_6579
19,25,survey-html-form,25,243778,1j4yz66w4dwly8d,633e13ba656728259b9f46cb,5,2329.0,,,"{""select"":""select0.1""}",,,,,,,select_shuffled,Dog_1818_Truck_5938
20,26,survey-html-form,26,246447,1j4yz66w4dwly8d,633e13ba656728259b9f46cb,5,2666.0,,,"{""select"":""select0.7""}",,,,,,,select_shuffled,Automobile_2813_Truck_8727
21,27,survey-html-form,27,248346,1j4yz66w4dwly8d,633e13ba656728259b9f46cb,5,1897.0,,,"{""select"":""select0.2""}",,,,,,,select_shuffled,Bird_5819_Dog_8776
22,28,survey-html-form,28,251179,1j4yz66w4dwly8d,633e13ba656728259b9f46cb,5,2830.0,,,"{""select"":""select0.4""}",,,,,,,select_shuffled,Airplane_6057_Deer_9189
23,29,survey-html-form,29,253795,1j4yz66w4dwly8d,633e13ba656728259b9f46cb,5,2614.0,,,"{""select"":""select0.7""}",,,,,,,select_shuffled,Airplane_6069_Horse_578
24,30,survey-html-form,30,256462,1j4yz66w4dwly8d,633e13ba656728259b9f46cb,5,2663.999999999971,,,"{""select"":""select0.6""}",,,,,,,select_shuffled,Bird_354_Deer_6507
25,31,survey-html-form,31,258912,1j4yz66w4dwly8d,633e13ba656728259b9f46cb,5,2447.0,,,"{""select"":""select0.9""}",,,,,,,select_shuffled,Cat_2285_Frog_5513
26,32,survey-html-form,32,261379,1j4yz66w4dwly8d,633e13ba656728259b9f46cb,5,2464.000000000029,,,"{""select"":""select0.5""}",,,,,,,select_shuffled,Airplane_8812_Bird_3076
27,33,survey-html-form,33,263914,1j4yz66w4dwly8d,633e13ba656728259b9f46cb,5,2532.0,,,"{""select"":""select0.8""}",,,,,,,select_shuffled,Cat_2175_Dog_8788
28,34,survey-html-form,34,266146,1j4yz66w4dwly8d,633e13ba656728259b9f46cb,5,2229.0,,,"{""select"":""select0.8""}",,,,,,,select_shuffled,Deer_4114_Horse_1119
29,35,survey-html-form,35,269028,1j4yz66w4dwly8d,633e13ba656728259b9f46cb,5,2880.0,,,"{""select"":""select0.3""}",,,,,,,select_shuffled,Airplane_4270_Deer_849
30,36,survey-html-form,36,271629,1j4yz66w4dwly8d,633e13ba656728259b9f46cb,5,2598.0,,,"{""select"":""select0.8""}",,,,,,,rerun_select_shuffled,Bird_1043_Horse_5464
31,37,survey-html-form,37,277380,1j4yz66w4dwly8d,633e13ba656728259b9f46cb,5,5749.0,,,"{""select"":""select0.5""}",,,,,,,rerun_select_shuffled,Dog_2316_Horse_7086
32,45,survey-html-form,6,81660,83vr9fr3zbkvxwq,633e13ba656728259b9f46cb,7,15463.70000000298,,,"{""select"":""select0.3""}",,,,,,,select_shuffled,Bird_6925_Frog_1766
33,46,survey-html-form,7,92157,83vr9fr3zbkvxwq,633e13ba656728259b9f46cb,7,10494.80000001192,,,"{""select"":""select0.4""}",,,,,,,select_shuffled,Airplane_8935_Cat_8658
34,47,survey-html-form,8,112279,83vr9fr3zbkvxwq,633e13ba656728259b9f46cb,7,20119.70000000298,,,"{""select"":""select0.3""}",,,,,,,select_shuffled,Deer_5888_Dog_6835
35,48,survey-html-form,9,132485,83vr9fr3zbkvxwq,633e13ba656728259b9f46cb,7,20204.70000000298,,,"{""select"":""select0.5""}",,,,,,,select_shuffled,Airplane_7115_Horse_4019
36,49,survey-html-form,10,147831,83vr9fr3zbkvxwq,633e13ba656728259b9f46cb,7,15343.20000000298,,,"{""select"":""select0.4""}",,,,,,,select_shuffled,Deer_4399_Dog_4934
37,50,survey-html-form,11,159143,83vr9fr3zbkvxwq,633e13ba656728259b9f46cb,7,11309.90000000596,,,"{""select"":""select0.5""}",,,,,,,select_shuffled,Automobile_9830_Bird_5118
38,51,survey-html-form,12,170121,83vr9fr3zbkvxwq,633e13ba656728259b9f46cb,7,10976.79999999702,,,"{""select"":""select0.5""}",,,,,,,select_shuffled,Automobile_5132_Truck_4770
39,52,survey-html-form,13,188965,83vr9fr3zbkvxwq,633e13ba656728259b9f46cb,7,18841.59999999404,,,"{""select"":""select0.5""}",,,,,,,select_shuffled,Automobile_9807_Horse_7456
40,53,survey-html-form,14,204121,83vr9fr3zbkvxwq,633e13ba656728259b9f46cb,7,15154.0,,,"{""select"":""select0.5""}",,,,,,,select_shuffled,Bird_2856_Dog_5694
41,54,survey-html-form,15,217638,83vr9fr3zbkvxwq,633e13ba656728259b9f46cb,7,13515.29999999702,,,"{""select"":""select0.7""}",,,,,,,select_shuffled,Deer_1300_Frog_6731
42,55,survey-html-form,16,233238,83vr9fr3zbkvxwq,633e13ba656728259b9f46cb,7,15598.0,,,"{""select"":""select0.3""}",,,,,,,select_shuffled,Airplane_6970_Truck_9177
43,56,survey-html-form,17,249861,83vr9fr3zbkvxwq,633e13ba656728259b9f46cb,7,16620.60000000894,,,"{""select"":""select0.5""}",,,,,,,select_shuffled,Frog_512_Horse_1477
44,57,survey-html-form,18,263002,83vr9fr3zbkvxwq,633e13ba656728259b9f46cb,7,13138.79999999702,,,"{""select"":""select0.5""}",,,,,,,select_shuffled,Cat_608_Frog_1985
45,58,survey-html-form,19,275595,83vr9fr3zbkvxwq,633e13ba656728259b9f46cb,7,12590.90000000596,,,"{""select"":""select0.3""}",,,,,,,select_shuffled,Dog_6224_Frog_617
46,59,survey-html-form,20,299591,83vr9fr3zbkvxwq,633e13ba656728259b9f46cb,7,23994.0,,,"{""select"":""select0.5""}",,,,,,,select_shuffled,Cat_426_Dog_8766
47,60,survey-html-form,21,306845,83vr9fr3zbkvxwq,633e13ba656728259b9f46cb,7,7250.90000000596,,,"{""select"":""select0.4""}",,,,,,,select_shuffled,Automobile_7487_Bird_9825
48,61,survey-html-form,22,321355,83vr9fr3zbkvxwq,633e13ba656728259b9f46cb,7,14508.10000000894,,,"{""select"":""select0.5""}",,,,,,,select_shuffled,Deer_9924_Truck_9552
49,62,survey-html-form,23,344523,83vr9fr3zbkvxwq,633e13ba656728259b9f46cb,7,23166.20000000298,,,"{""select"":""select0.5""}",,,,,,,select_shuffled,Airplane_4606_Ship_5355
50,63,survey-html-form,24,367601,83vr9fr3zbkvxwq,633e13ba656728259b9f46cb,7,23076.70000000298,,,"{""select"":""select0.4""}",,,,,,,select_shuffled,Bird_7348_Cat_6202
51,64,survey-html-form,25,382742,83vr9fr3zbkvxwq,633e13ba656728259b9f46cb,7,15138.90000000596,,,"{""select"":""select0.6""}",,,,,,,select_shuffled,Dog_6214_Horse_5953
52,65,survey-html-form,26,395639,83vr9fr3zbkvxwq,633e13ba656728259b9f46cb,7,12895.0,,,"{""select"":""select0.3""}",,,,,,,select_shuffled,Ship_385_Truck_7661
53,66,survey-html-form,27,405839,83vr9fr3zbkvxwq,633e13ba656728259b9f46cb,7,10197.79999999702,,,"{""select"":""select0.6""}",,,,,,,select_shuffled,Frog_4179_Horse_2959
54,67,survey-html-form,28,419438,83vr9fr3zbkvxwq,633e13ba656728259b9f46cb,7,13597.40000000596,,,"{""select"":""select0.5""}",,,,,,,select_shuffled,Bird_4535_Cat_4652
55,68,survey-html-form,29,430028,83vr9fr3zbkvxwq,633e13ba656728259b9f46cb,7,10587.29999999702,,,"{""select"":""select0.5""}",,,,,,,select_shuffled,Airplane_8402_Dog_9414
56,69,survey-html-form,30,460346,83vr9fr3zbkvxwq,633e13ba656728259b9f46cb,7,30316.0,,,"{""select"":""select0.3""}",,,,,,,select_shuffled,Bird_776_Ship_711
57,70,survey-html-form,31,469111,83vr9fr3zbkvxwq,633e13ba656728259b9f46cb,7,8762.90000000596,,,"{""select"":""select0.6""}",,,,,,,select_shuffled,Bird_5771_Truck_1344
58,71,survey-html-form,32,478721,83vr9fr3zbkvxwq,633e13ba656728259b9f46cb,7,9608.79999999702,,,"{""select"":""select0.6""}",,,,,,,select_shuffled,Airplane_4557_Automobile_6100
59,72,survey-html-form,33,495992,83vr9fr3zbkvxwq,633e13ba656728259b9f46cb,7,17268.10000000894,,,"{""select"":""select0.5""}",,,,,,,select_shuffled,Frog_5567_Truck_1114
60,73,survey-html-form,34,502784,83vr9fr3zbkvxwq,633e13ba656728259b9f46cb,7,6790.09999999404,,,"{""select"":""select0.5""}",,,,,,,select_shuffled,Cat_2840_Frog_3427
61,74,survey-html-form,35,515912,83vr9fr3zbkvxwq,633e13ba656728259b9f46cb,7,13125.89999999106,,,"{""select"":""select0.5""}",,,,,,,select_shuffled,Bird_4873_Deer_4677
62,75,survey-html-form,36,528528,83vr9fr3zbkvxwq,633e13ba656728259b9f46cb,7,12613.70000000298,,,"{""select"":""select0.5""}",,,,,,,rerun_select_shuffled,Automobile_9830_Bird_5118
63,76,survey-html-form,37,537708,83vr9fr3zbkvxwq,633e13ba656728259b9f46cb,7,9177.79999999702,,,"{""select"":""select0.6""}",,,,,,,rerun_select_shuffled,Airplane_6970_Truck_9177
64,84,survey-html-form,6,76999,e3689aje2d8r38z,633e13ba656728259b9f46cb,4,9680.0,,,"{""select"":""select0.5""}",,,,,,,select_shuffled,Airplane_4040_Bird_2097
65,85,survey-html-form,7,86363,e3689aje2d8r38z,633e13ba656728259b9f46cb,4,9357.0,,,"{""select"":""select0.6""}",,,,,,,select_shuffled,Ship_8441_Truck_5521
66,86,survey-html-form,8,91575,e3689aje2d8r38z,633e13ba656728259b9f46cb,4,5207.0,,,"{""select"":""select0.7""}",,,,,,,select_shuffled,Bird_2383_Dog_9098
67,87,survey-html-form,9,100236,e3689aje2d8r38z,633e13ba656728259b9f46cb,4,8658.0,,,"{""select"":""select0.5""}",,,,,,,select_shuffled,Ship_3357_Truck_5958
68,88,survey-html-form,10,106796,e3689aje2d8r38z,633e13ba656728259b9f46cb,4,6557.0,,,"{""select"":""select0.3""}",,,,,,,select_shuffled,Bird_7821_Ship_2380
69,89,survey-html-form,11,113691,e3689aje2d8r38z,633e13ba656728259b9f46cb,4,6893.0,,,"{""select"":""select0.4""}",,,,,,,select_shuffled,Automobile_4549_Cat_1377
70,90,survey-html-form,12,120199,e3689aje2d8r38z,633e13ba656728259b9f46cb,4,6502.0,,,"{""select"":""select0.6""}",,,,,,,select_shuffled,Cat_4652_Truck_4550
71,91,survey-html-form,13,123604,e3689aje2d8r38z,633e13ba656728259b9f46cb,4,3402.0,,,"{""select"":""select0.5""}",,,,,,,select_shuffled,Deer_1945_Dog_9376
72,92,survey-html-form,14,127200,e3689aje2d8r38z,633e13ba656728259b9f46cb,4,3592.0,,,"{""select"":""select0.6""}",,,,,,,select_shuffled,Dog_478_Truck_9099
73,93,survey-html-form,15,132310,e3689aje2d8r38z,633e13ba656728259b9f46cb,4,5106.0,,,"{""select"":""select0.5""}",,,,,,,select_shuffled,Automobile_366_Dog_8115
74,94,survey-html-form,16,139458,e3689aje2d8r38z,633e13ba656728259b9f46cb,4,7146.0,,,"{""select"":""select0.5""}",,,,,,,select_shuffled,Deer_9711_Horse_3187
75,95,survey-html-form,17,148075,e3689aje2d8r38z,633e13ba656728259b9f46cb,4,8613.0,,,"{""select"":""select0.3""}",,,,,,,select_shuffled,Automobile_947_Cat_4760
76,96,survey-html-form,18,152290,e3689aje2d8r38z,633e13ba656728259b9f46cb,4,4209.0,,,"{""select"":""select0.4""}",,,,,,,select_shuffled,Automobile_3370_Horse_2734
77,97,survey-html-form,19,155000,e3689aje2d8r38z,633e13ba656728259b9f46cb,4,2708.0,,,"{""select"":""select0.6""}",,,,,,,select_shuffled,Bird_6145_Cat_7399
78,98,survey-html-form,20,162143,e3689aje2d8r38z,633e13ba656728259b9f46cb,4,7140.0,,,"{""select"":""select0.5""}",,,,,,,select_shuffled,Cat_3572_Dog_6564
79,99,survey-html-form,21,170973,e3689aje2d8r38z,633e13ba656728259b9f46cb,4,8825.0,,,"{""select"":""select0.6""}",,,,,,,select_shuffled,Automobile_2484_Truck_1697
80,100,survey-html-form,22,174300,e3689aje2d8r38z,633e13ba656728259b9f46cb,4,3322.0,,,"{""select"":""select0.7""}",,,,,,,select_shuffled,Deer_8086_Truck_4952
81,101,survey-html-form,23,179266,e3689aje2d8r38z,633e13ba656728259b9f46cb,4,4963.0,,,"{""select"":""select0.5""}",,,,,,,select_shuffled,Bird_3934_Dog_6890
82,102,survey-html-form,24,182177,e3689aje2d8r38z,633e13ba656728259b9f46cb,4,2908.0,,,"{""select"":""select0.5""}",,,,,,,select_shuffled,Airplane_8909_Dog_1793
83,103,survey-html-form,25,186315,e3689aje2d8r38z,633e13ba656728259b9f46cb,4,4135.0,,,"{""select"":""select0.5""}",,,,,,,select_shuffled,Airplane_4216_Horse_6266
84,104,survey-html-form,26,199778,e3689aje2d8r38z,633e13ba656728259b9f46cb,4,13454.0,,,"{""select"":""select0.5""}",,,,,,,select_shuffled,Bird_4873_Deer_4677
85,105,survey-html-form,27,206753,e3689aje2d8r38z,633e13ba656728259b9f46cb,4,6967.0,,,"{""select"":""select0.4""}",,,,,,,select_shuffled,Cat_4346_Truck_4932
86,106,survey-html-form,28,215029,e3689aje2d8r38z,633e13ba656728259b9f46cb,4,8273.0,,,"{""select"":""select0.6""}",,,,,,,select_shuffled,Automobile_2712_Truck_2433
87,107,survey-html-form,29,221127,e3689aje2d8r38z,633e13ba656728259b9f46cb,4,6091.0,,,"{""select"":""select0.6""}",,,,,,,select_shuffled,Airplane_74_Dog_3610
88,108,survey-html-form,30,223884,e3689aje2d8r38z,633e13ba656728259b9f46cb,4,2752.0,,,"{""select"":""select0.5""}",,,,,,,select_shuffled,Airplane_4824_Truck_4719
89,109,survey-html-form,31,230351,e3689aje2d8r38z,633e13ba656728259b9f46cb,4,6462.0,,,"{""select"":""select0.2""}",,,,,,,select_shuffled,Automobile_3553_Horse_7751
90,110,survey-html-form,32,234847,e3689aje2d8r38z,633e13ba656728259b9f46cb,4,4485.0,,,"{""select"":""select0.6""}",,,,,,,select_shuffled,Dog_3748_Horse_5690
91,111,survey-html-form,33,239811,e3689aje2d8r38z,633e13ba656728259b9f46cb,4,4953.0,,,"{""select"":""select0.6""}",,,,,,,select_shuffled,Airplane_1719_Automobile_4425
92,112,survey-html-form,34,246113,e3689aje2d8r38z,633e13ba656728259b9f46cb,4,6293.0,,,"{""select"":""select0.4""}",,,,,,,select_shuffled,Ship_337_Truck_2305
93,113,survey-html-form,35,256923,e3689aje2d8r38z,633e13ba656728259b9f46cb,4,10807.0,,,"{""select"":""select0.4""}",,,,,,,select_shuffled,Cat_78_Deer_1015
94,114,survey-html-form,36,261713,e3689aje2d8r38z,633e13ba656728259b9f46cb,4,4783.0,,,"{""select"":""select0.4""}",,,,,,,rerun_select_shuffled,Automobile_4549_Cat_1377
95,115,survey-html-form,37,267476,e3689aje2d8r38z,633e13ba656728259b9f46cb,4,5759.0,,,"{""select"":""select0.6""}",,,,,,,rerun_select_shuffled,Deer_9711_Horse_3187
96,123,survey-html-form,6,264304,m7nhksy3h42z0ag,633e13ba656728259b9f46cb,4,56830.300000000745,,,"{""select"":""select0.5""}",,,,,,,select_shuffled,Airplane_8909_Dog_1793
97,124,survey-html-form,7,318137,m7nhksy3h42z0ag,633e13ba656728259b9f46cb,4,53829.40000000037,,,"{""select"":""select0.4""}",,,,,,,select_shuffled,Automobile_947_Cat_4760
98,125,survey-html-form,8,363959,m7nhksy3h42z0ag,633e13ba656728259b9f46cb,4,45818.20000000112,,,"{""select"":""select0.6""}",,,,,,,select_shuffled,Ship_8441_Truck_5521
99,126,survey-html-form,9,401132,m7nhksy3h42z0ag,633e13ba656728259b9f46cb,4,37168.5,,,"{""select"":""select0.5""}",,,,,,,select_shuffled,Cat_4346_Truck_4932
100,127,survey-html-form,10,418412,m7nhksy3h42z0ag,633e13ba656728259b9f46cb,4,17276.299999998882,,,"{""select"":""select0.5""}",,,,,,,select_shuffled,Airplane_4216_Horse_6266
101,128,survey-html-form,11,441401,m7nhksy3h42z0ag,633e13ba656728259b9f46cb,4,22985.60000000149,,,"{""select"":""select0.5""}",,,,,,,select_shuffled,Airplane_4824_Truck_4719
102,129,survey-html-form,12,457084,m7nhksy3h42z0ag,633e13ba656728259b9f46cb,4,15678.5,,,"{""select"":""select0.7""}",,,,,,,select_shuffled,Bird_2383_Dog_9098
103,130,survey-html-form,13,487167,m7nhksy3h42z0ag,633e13ba656728259b9f46cb,4,30080.400000000373,,,"{""select"":""select0.7""}",,,,,,,select_shuffled,Airplane_1719_Automobile_4425
104,131,survey-html-form,14,521919,m7nhksy3h42z0ag,633e13ba656728259b9f46cb,4,34748.59999999963,,,"{""select"":""select0.6""}",,,,,,,select_shuffled,Airplane_74_Dog_3610
105,132,survey-html-form,15,542368,m7nhksy3h42z0ag,633e13ba656728259b9f46cb,4,20444.69999999925,,,"{""select"":""select0.4""}",,,,,,,select_shuffled,Automobile_2484_Truck_1697
106,133,survey-html-form,16,558668,m7nhksy3h42z0ag,633e13ba656728259b9f46cb,4,16296.299999998882,,,"{""select"":""select0.4""}",,,,,,,select_shuffled,Deer_1945_Dog_9376
107,134,survey-html-form,17,591744,m7nhksy3h42z0ag,633e13ba656728259b9f46cb,4,33072.300000000745,,,"{""select"":""select0.3""}",,,,,,,select_shuffled,Cat_4652_Truck_4550
108,135,survey-html-form,18,618603,m7nhksy3h42z0ag,633e13ba656728259b9f46cb,4,26856.099999999627,,,"{""select"":""select0.6""}",,,,,,,select_shuffled,Deer_8086_Truck_4952
109,136,survey-html-form,19,644491,m7nhksy3h42z0ag,633e13ba656728259b9f46cb,4,25884.5,,,"{""select"":""select0.5""}",,,,,,,select_shuffled,Bird_6145_Cat_7399
110,137,survey-html-form,20,661486,m7nhksy3h42z0ag,633e13ba656728259b9f46cb,4,16990.599999999627,,,"{""select"":""select0.5""}",,,,,,,select_shuffled,Bird_4873_Deer_4677
111,138,survey-html-form,21,680279,m7nhksy3h42z0ag,633e13ba656728259b9f46cb,4,18790.099999999627,,,"{""select"":""select0.5""}",,,,,,,select_shuffled,Automobile_366_Dog_8115
112,139,survey-html-form,22,701300,m7nhksy3h42z0ag,633e13ba656728259b9f46cb,4,21016.900000000373,,,"{""select"":""select0.5""}",,,,,,,select_shuffled,Dog_3748_Horse_5690
113,140,survey-html-form,23,721071,m7nhksy3h42z0ag,633e13ba656728259b9f46cb,4,19767.800000000745,,,"{""select"":""select0.4""}",,,,,,,select_shuffled,Bird_7821_Ship_2380
114,141,survey-html-form,24,756995,m7nhksy3h42z0ag,633e13ba656728259b9f46cb,4,35921.20000000112,,,"{""select"":""select0.6""}",,,,,,,select_shuffled,Ship_337_Truck_2305
115,142,survey-html-form,25,814902,m7nhksy3h42z0ag,633e13ba656728259b9f46cb,4,57903.59999999963,,,"{""select"":""select0.4""}",,,,,,,select_shuffled,Automobile_3553_Horse_7751
116,143,survey-html-form,26,835503,m7nhksy3h42z0ag,633e13ba656728259b9f46cb,4,20597.0,,,"{""select"":""select0.6""}",,,,,,,select_shuffled,Deer_9711_Horse_3187
117,144,survey-html-form,27,851651,m7nhksy3h42z0ag,633e13ba656728259b9f46cb,4,16143.900000000373,,,"{""select"":""select0.5""}",,,,,,,select_shuffled,Automobile_3370_Horse_2734
118,145,survey-html-form,28,876523,m7nhksy3h42z0ag,633e13ba656728259b9f46cb,4,24867.300000000745,,,"{""select"":""select0.5""}",,,,,,,select_shuffled,Automobile_2712_Truck_2433
119,146,survey-html-form,29,906571,m7nhksy3h42z0ag,633e13ba656728259b9f46cb,4,30043.400000000373,,,"{""select"":""select0.6""}",,,,,,,select_shuffled,Ship_3357_Truck_5958
120,147,survey-html-form,30,931263,m7nhksy3h42z0ag,633e13ba656728259b9f46cb,4,24688.5,,,"{""select"":""select0.6""}",,,,,,,select_shuffled,Bird_3934_Dog_6890
121,148,survey-html-form,31,955603,m7nhksy3h42z0ag,633e13ba656728259b9f46cb,4,24336.0,,,"{""select"":""select0.4""}",,,,,,,select_shuffled,Cat_78_Deer_1015
122,149,survey-html-form,32,967943,m7nhksy3h42z0ag,633e13ba656728259b9f46cb,4,12336.699999999257,,,"{""select"":""select0.6""}",,,,,,,select_shuffled,Dog_478_Truck_9099
123,150,survey-html-form,33,981287,m7nhksy3h42z0ag,633e13ba656728259b9f46cb,4,13340.199999999257,,,"{""select"":""select0.4""}",,,,,,,select_shuffled,Airplane_4040_Bird_2097
124,151,survey-html-form,34,994247,m7nhksy3h42z0ag,633e13ba656728259b9f46cb,4,12957.099999999627,,,"{""select"":""select0.5""}",,,,,,,select_shuffled,Cat_3572_Dog_6564
125,152,survey-html-form,35,1008611,m7nhksy3h42z0ag,633e13ba656728259b9f46cb,4,14360.699999999257,,,"{""select"":""select0.5""}",,,,,,,select_shuffled,Automobile_4549_Cat_1377
126,153,survey-html-form,36,1019832,m7nhksy3h42z0ag,633e13ba656728259b9f46cb,4,11216.400000000373,,,"{""select"":""select0.6""}",,,,,,,rerun_select_shuffled,Airplane_4824_Truck_4719
127,154,survey-html-form,37,1086127,m7nhksy3h42z0ag,633e13ba656728259b9f46cb,4,66290.80000000075,,,"{""select"":""select0.5""}",,,,,,,rerun_select_shuffled,Deer_1945_Dog_9376
128,162,survey-html-form,6,88536,1sd7x6dt9so63zo,633e13ba656728259b9f46cb,7,7671.700000047684,,,"{""select"":""select0.4""}",,,,,,,select_shuffled,Dog_6224_Frog_617
129,163,survey-html-form,7,98188,1sd7x6dt9so63zo,633e13ba656728259b9f46cb,7,9644.5,,,"{""select"":""select0.4""}",,,,,,,select_shuffled,Deer_9924_Truck_9552
130,164,survey-html-form,8,105984,1sd7x6dt9so63zo,633e13ba656728259b9f46cb,7,7787.899999856949,,,"{""select"":""select0.5""}",,,,,,,select_shuffled,Frog_4179_Horse_2959
131,165,survey-html-form,9,111825,1sd7x6dt9so63zo,633e13ba656728259b9f46cb,7,5832.399999856949,,,"{""select"":""select0.3""}",,,,,,,select_shuffled,Airplane_4606_Ship_5355
132,166,survey-html-form,10,120590,1sd7x6dt9so63zo,633e13ba656728259b9f46cb,7,8753.799999952316,,,"{""select"":""select0.3""}",,,,,,,select_shuffled,Bird_6925_Frog_1766
133,167,survey-html-form,11,126013,1sd7x6dt9so63zo,633e13ba656728259b9f46cb,7,5416.599999904633,,,"{""select"":""select0.7""}",,,,,,,select_shuffled,Deer_1300_Frog_6731
134,168,survey-html-form,12,130000,1sd7x6dt9so63zo,633e13ba656728259b9f46cb,7,3985.900000095368,,,"{""select"":""select0.6""}",,,,,,,select_shuffled,Ship_385_Truck_7661
135,169,survey-html-form,13,133965,1sd7x6dt9so63zo,633e13ba656728259b9f46cb,7,3953.200000047684,,,"{""select"":""select0.5""}",,,,,,,select_shuffled,Airplane_8402_Dog_9414
136,170,survey-html-form,14,137851,1sd7x6dt9so63zo,633e13ba656728259b9f46cb,7,3879.900000095368,,,"{""select"":""select0.3""}",,,,,,,select_shuffled,Automobile_9807_Horse_7456
137,171,survey-html-form,15,142137,1sd7x6dt9so63zo,633e13ba656728259b9f46cb,7,4280.100000143051,,,"{""select"":""select0.7""}",,,,,,,select_shuffled,Bird_7348_Cat_6202
138,172,survey-html-form,16,146661,1sd7x6dt9so63zo,633e13ba656728259b9f46cb,7,4516.600000143051,,,"{""select"":""select0.5""}",,,,,,,select_shuffled,Deer_4399_Dog_4934
139,173,survey-html-form,17,153224,1sd7x6dt9so63zo,633e13ba656728259b9f46cb,7,6553.099999904633,,,"{""select"":""select0.6""}",,,,,,,select_shuffled,Frog_5567_Truck_1114
140,174,survey-html-form,18,157417,1sd7x6dt9so63zo,633e13ba656728259b9f46cb,7,4186.900000095367,,,"{""select"":""select0.6""}",,,,,,,select_shuffled,Dog_6214_Horse_5953
141,175,survey-html-form,19,164334,1sd7x6dt9so63zo,633e13ba656728259b9f46cb,7,6906.099999904633,,,"{""select"":""select0.5""}",,,,,,,select_shuffled,Automobile_9830_Bird_5118
142,176,survey-html-form,20,169285,1sd7x6dt9so63zo,633e13ba656728259b9f46cb,7,4943.600000143051,,,"{""select"":""select0.4""}",,,,,,,select_shuffled,Bird_4535_Cat_4652
143,177,survey-html-form,21,173304,1sd7x6dt9so63zo,633e13ba656728259b9f46cb,7,4007.200000047684,,,"{""select"":""select0.6""}",,,,,,,select_shuffled,Bird_2856_Dog_5694
144,178,survey-html-form,22,176443,1sd7x6dt9so63zo,633e13ba656728259b9f46cb,7,3132.9000000953674,,,"{""select"":""select0.5""}",,,,,,,select_shuffled,Airplane_7115_Horse_4019
145,179,survey-html-form,23,182277,1sd7x6dt9so63zo,633e13ba656728259b9f46cb,7,5827.799999952316,,,"{""select"":""select0.4""}",,,,,,,select_shuffled,Cat_2840_Frog_3427
146,180,survey-html-form,24,186559,1sd7x6dt9so63zo,633e13ba656728259b9f46cb,7,4266.300000190735,,,"{""select"":""select0.2""}",,,,,,,select_shuffled,Cat_608_Frog_1985
147,181,survey-html-form,25,192663,1sd7x6dt9so63zo,633e13ba656728259b9f46cb,7,6094.5,,,"{""select"":""select0.4""}",,,,,,,select_shuffled,Airplane_6970_Truck_9177
148,182,survey-html-form,26,197199,1sd7x6dt9so63zo,633e13ba656728259b9f46cb,7,4527.0,,,"{""select"":""select0.4""}",,,,,,,select_shuffled,Cat_426_Dog_8766
149,183,survey-html-form,27,200808,1sd7x6dt9so63zo,633e13ba656728259b9f46cb,7,3602.7999999523163,,,"{""select"":""select0.7""}",,,,,,,select_shuffled,Bird_776_Ship_711
150,184,survey-html-form,28,205730,1sd7x6dt9so63zo,633e13ba656728259b9f46cb,7,4910.200000047684,,,"{""select"":""select0.5""}",,,,,,,select_shuffled,Frog_512_Horse_1477
151,185,survey-html-form,29,212688,1sd7x6dt9so63zo,633e13ba656728259b9f46cb,7,6949.0,,,"{""select"":""select0.6""}",,,,,,,select_shuffled,Airplane_8935_Cat_8658
152,186,survey-html-form,30,217182,1sd7x6dt9so63zo,633e13ba656728259b9f46cb,7,4483.100000143051,,,"{""select"":""select0.6""}",,,,,,,select_shuffled,Bird_5771_Truck_1344
153,187,survey-html-form,31,220940,1sd7x6dt9so63zo,633e13ba656728259b9f46cb,7,3751.899999856949,,,"{""select"":""select0.3""}",,,,,,,select_shuffled,Automobile_7487_Bird_9825
154,188,survey-html-form,32,226320,1sd7x6dt9so63zo,633e13ba656728259b9f46cb,7,5368.400000095367,,,"{""select"":""select0.6""}",,,,,,,select_shuffled,Airplane_4557_Automobile_6100
155,189,survey-html-form,33,229769,1sd7x6dt9so63zo,633e13ba656728259b9f46cb,7,3442.2999999523163,,,"{""select"":""select0.6""}",,,,,,,select_shuffled,Automobile_5132_Truck_4770
156,190,survey-html-form,34,232505,1sd7x6dt9so63zo,633e13ba656728259b9f46cb,7,2728.7999999523163,,,"{""select"":""select0.5""}",,,,,,,select_shuffled,Bird_4873_Deer_4677
157,191,survey-html-form,35,235299,1sd7x6dt9so63zo,633e13ba656728259b9f46cb,7,2787.0,,,"{""select"":""select0.5""}",,,,,,,select_shuffled,Deer_5888_Dog_6835
158,192,survey-html-form,36,237746,1sd7x6dt9so63zo,633e13ba656728259b9f46cb,7,2440.0,,,"{""select"":""select0.9""}",,,,,,,rerun_select_shuffled,Deer_1300_Frog_6731
159,193,survey-html-form,37,242472,1sd7x6dt9so63zo,633e13ba656728259b9f46cb,7,4721.900000095367,,,"{""select"":""select0.5""}",,,,,,,rerun_select_shuffled,Deer_4399_Dog_4934
160,205,survey-html-form,10,197982,ztxporwst5mw21m,633e13ba656728259b9f46cb,8,14473.0,,,"{""select"":""select0.4""}",,,,,,,select_shuffled,Automobile_2645_Dog_4764
161,206,survey-html-form,11,205845,ztxporwst5mw21m,633e13ba656728259b9f46cb,8,7861.0,,,"{""select"":""select0.5""}",,,,,,,select_shuffled,Deer_6992_Dog_7828
162,207,survey-html-form,12,211246,ztxporwst5mw21m,633e13ba656728259b9f46cb,8,5398.0,,,"{""select"":""select0.8""}",,,,,,,select_shuffled,Horse_87_Truck_3409
163,208,survey-html-form,13,219791,ztxporwst5mw21m,633e13ba656728259b9f46cb,8,8544.0,,,"{""select"":""select0.6""}",,,,,,,select_shuffled,Bird_5738_Truck_9324
164,209,survey-html-form,14,227658,ztxporwst5mw21m,633e13ba656728259b9f46cb,8,7864.0,,,"{""select"":""select0.4""}",,,,,,,select_shuffled,Automobile_6742_Cat_6311
165,210,survey-html-form,15,236996,ztxporwst5mw21m,633e13ba656728259b9f46cb,8,9337.0,,,"{""select"":""select0.7""}",,,,,,,select_shuffled,Horse_1934_Ship_6296
166,211,survey-html-form,16,252700,ztxporwst5mw21m,633e13ba656728259b9f46cb,8,15701.0,,,"{""select"":""select0.9""}",,,,,,,select_shuffled,Airplane_3497_Ship_8913
167,212,survey-html-form,17,270932,ztxporwst5mw21m,633e13ba656728259b9f46cb,8,18231.0,,,"{""select"":""select0.4""}",,,,,,,select_shuffled,Deer_9393_Truck_4588
168,213,survey-html-form,18,278506,ztxporwst5mw21m,633e13ba656728259b9f46cb,8,7572.0,,,"{""select"":""select0.6""}",,,,,,,select_shuffled,Airplane_6118_Deer_6855
169,214,survey-html-form,19,292490,ztxporwst5mw21m,633e13ba656728259b9f46cb,8,13981.0,,,"{""select"":""select0.5""}",,,,,,,select_shuffled,Airplane_6494_Deer_3507
170,215,survey-html-form,20,300972,ztxporwst5mw21m,633e13ba656728259b9f46cb,8,8481.0,,,"{""select"":""select0.5""}",,,,,,,select_shuffled,Dog_2525_Truck_1082
171,216,survey-html-form,21,306634,ztxporwst5mw21m,633e13ba656728259b9f46cb,8,5659.0,,,"{""select"":""select0.4""}",,,,,,,select_shuffled,Cat_1603_Dog_9798
172,217,survey-html-form,22,311292,ztxporwst5mw21m,633e13ba656728259b9f46cb,8,4657.0,,,"{""select"":""select0.3""}",,,,,,,select_shuffled,Cat_1050_Ship_6524
173,218,survey-html-form,23,318833,ztxporwst5mw21m,633e13ba656728259b9f46cb,8,7541.0,,,"{""select"":""select0.7""}",,,,,,,select_shuffled,Airplane_8925_Bird_751
174,219,survey-html-form,24,330813,ztxporwst5mw21m,633e13ba656728259b9f46cb,8,11979.0,,,"{""select"":""select0.5""}",,,,,,,select_shuffled,Dog_8170_Frog_6693
175,220,survey-html-form,25,343896,ztxporwst5mw21m,633e13ba656728259b9f46cb,8,13082.0,,,"{""select"":""select0.7""}",,,,,,,select_shuffled,Bird_755_Horse_3890
176,221,survey-html-form,26,359100,ztxporwst5mw21m,633e13ba656728259b9f46cb,8,15201.0,,,"{""select"":""select0.6""}",,,,,,,select_shuffled,Dog_8045_Frog_9641
177,222,survey-html-form,27,367998,ztxporwst5mw21m,633e13ba656728259b9f46cb,8,8895.0,,,"{""select"":""select0.7""}",,,,,,,select_shuffled,Bird_5085_Horse_1169
178,223,survey-html-form,28,392326,ztxporwst5mw21m,633e13ba656728259b9f46cb,8,24328.0,,,"{""select"":""select0.5""}",,,,,,,select_shuffled,Dog_6127_Frog_9569
179,224,survey-html-form,29,404993,ztxporwst5mw21m,633e13ba656728259b9f46cb,8,12663.0,,,"{""select"":""select0.6""}",,,,,,,select_shuffled,Airplane_8777_Truck_139
180,225,survey-html-form,30,413234,ztxporwst5mw21m,633e13ba656728259b9f46cb,8,8239.0,,,"{""select"":""select0.8""}",,,,,,,select_shuffled,Airplane_778_Frog_7183
181,226,survey-html-form,31,422476,ztxporwst5mw21m,633e13ba656728259b9f46cb,8,9239.0,,,"{""select"":""select0.4""}",,,,,,,select_shuffled,Deer_1821_Ship_3686
182,227,survey-html-form,32,434983,ztxporwst5mw21m,633e13ba656728259b9f46cb,8,12507.0,,,"{""select"":""select0.2""}",,,,,,,select_shuffled,Automobile_2607_Ship_3151
183,228,survey-html-form,33,451953,ztxporwst5mw21m,633e13ba656728259b9f46cb,8,16967.0,,,"{""select"":""select0.4""}",,,,,,,select_shuffled,Automobile_5108_Ship_6602
184,229,survey-html-form,34,462415,ztxporwst5mw21m,633e13ba656728259b9f46cb,8,10461.0,,,"{""select"":""select0.7""}",,,,,,,select_shuffled,Airplane_6985_Cat_1612
185,230,survey-html-form,35,471740,ztxporwst5mw21m,633e13ba656728259b9f46cb,8,9323.0,,,"{""select"":""select0.6""}",,,,,,,select_shuffled,Frog_3446_Ship_6737
186,231,survey-html-form,36,483925,ztxporwst5mw21m,633e13ba656728259b9f46cb,8,12182.0,,,"{""select"":""select0.5""}",,,,,,,select_shuffled,Frog_2702_Horse_1780
187,232,survey-html-form,37,491842,ztxporwst5mw21m,633e13ba656728259b9f46cb,8,7916.0,,,"{""select"":""select0.6""}",,,,,,,select_shuffled,Dog_5692_Truck_585
188,233,survey-html-form,38,503817,ztxporwst5mw21m,633e13ba656728259b9f46cb,8,11974.0,,,"{""select"":""select0.6""}",,,,,,,select_shuffled,Deer_9715_Dog_1854
189,234,survey-html-form,39,513996,ztxporwst5mw21m,633e13ba656728259b9f46cb,8,10176.0,,,"{""select"":""select0.5""}",,,,,,,select_shuffled,Bird_1196_Horse_643
190,235,survey-html-form,40,525390,ztxporwst5mw21m,633e13ba656728259b9f46cb,8,11393.0,,,"{""select"":""select0.6""}",,,,,,,rerun_select_shuffled,Horse_1934_Ship_6296
191,236,survey-html-form,41,535062,ztxporwst5mw21m,633e13ba656728259b9f46cb,8,9669.0,,,"{""select"":""select0.3""}",,,,,,,rerun_select_shuffled,Dog_2525_Truck_1082
192,244,survey-html-form,6,130289,mjmjc05dn0crxmr,633e13ba656728259b9f46cb,2,10402.400000035765,,,"{""select"":""select0.5""}",,,,,,,select_shuffled,Automobile_4948_Frog_4405
193,245,survey-html-form,7,142233,mjmjc05dn0crxmr,633e13ba656728259b9f46cb,2,11940.19999998808,,,"{""select"":""select0.5""}",,,,,,,select_shuffled,Bird_5085_Frog_7066
194,246,survey-html-form,8,150766,mjmjc05dn0crxmr,633e13ba656728259b9f46cb,2,8529.699999988079,,,"{""select"":""select0.5""}",,,,,,,select_shuffled,Frog_8963_Truck_1841
195,247,survey-html-form,9,158293,mjmjc05dn0crxmr,633e13ba656728259b9f46cb,2,7523.799999952316,,,"{""select"":""select0.6""}",,,,,,,select_shuffled,Bird_9624_Deer_9585
196,248,survey-html-form,10,172733,mjmjc05dn0crxmr,633e13ba656728259b9f46cb,2,14436.80000001192,,,"{""select"":""select0.7""}",,,,,,,select_shuffled,Horse_1602_Ship_2527
197,249,survey-html-form,11,184860,mjmjc05dn0crxmr,633e13ba656728259b9f46cb,2,12138.700000047684,,,"{""select"":""select0.5""}",,,,,,,select_shuffled,Cat_8420_Deer_5252
198,250,survey-html-form,12,193604,mjmjc05dn0crxmr,633e13ba656728259b9f46cb,2,8740.900000035763,,,"{""select"":""select0.5""}",,,,,,,select_shuffled,Dog_8869_Horse_5096
199,251,survey-html-form,13,204629,mjmjc05dn0crxmr,633e13ba656728259b9f46cb,2,11021.80000001192,,,"{""select"":""select0.6""}",,,,,,,select_shuffled,Automobile_887_Bird_8384
200,252,survey-html-form,14,212521,mjmjc05dn0crxmr,633e13ba656728259b9f46cb,2,7889.0,,,"{""select"":""select0.6""}",,,,,,,select_shuffled,Horse_7342_Truck_6795
201,253,survey-html-form,15,221912,mjmjc05dn0crxmr,633e13ba656728259b9f46cb,2,9387.80000001192,,,"{""select"":""select0.5""}",,,,,,,select_shuffled,Cat_7807_Deer_4027
202,254,survey-html-form,16,235454,mjmjc05dn0crxmr,633e13ba656728259b9f46cb,2,13539.80000001192,,,"{""select"":""select0.5""}",,,,,,,select_shuffled,Deer_7039_Frog_1452
203,255,survey-html-form,17,244039,mjmjc05dn0crxmr,633e13ba656728259b9f46cb,2,8565.599999964237,,,"{""select"":""select0.6""}",,,,,,,select_shuffled,Automobile_887_Bird_8384
204,256,survey-html-form,18,252679,mjmjc05dn0crxmr,633e13ba656728259b9f46cb,2,8636.800000011921,,,"{""select"":""select0.6""}",,,,,,,select_shuffled,Automobile_5456_Frog_7606
205,257,survey-html-form,19,262247,mjmjc05dn0crxmr,633e13ba656728259b9f46cb,2,9565.80000001192,,,"{""select"":""select0.4""}",,,,,,,select_shuffled,Horse_5096_Truck_9312
206,258,survey-html-form,20,267799,mjmjc05dn0crxmr,633e13ba656728259b9f46cb,2,5549.0,,,"{""select"":""select0.5""}",,,,,,,select_shuffled,Automobile_3527_Frog_300
207,259,survey-html-form,21,278000,mjmjc05dn0crxmr,633e13ba656728259b9f46cb,2,10198.0,,,"{""select"":""select0.4""}",,,,,,,select_shuffled,Frog_3124_Ship_7142
208,260,survey-html-form,22,287699,mjmjc05dn0crxmr,633e13ba656728259b9f46cb,2,9695.80000001192,,,"{""select"":""select0.7""}",,,,,,,select_shuffled,Airplane_7987_Dog_4906
209,261,survey-html-form,23,295625,mjmjc05dn0crxmr,633e13ba656728259b9f46cb,2,7922.799999952316,,,"{""select"":""select0.5""}",,,,,,,select_shuffled,Bird_2977_Truck_626
210,262,survey-html-form,24,309606,mjmjc05dn0crxmr,633e13ba656728259b9f46cb,2,13977.80000001192,,,"{""select"":""select0.8""}",,,,,,,select_shuffled,Cat_3023_Frog_4774
211,263,survey-html-form,25,316514,mjmjc05dn0crxmr,633e13ba656728259b9f46cb,2,6904.800000011921,,,"{""select"":""select0.6""}",,,,,,,select_shuffled,Airplane_9724_Automobile_6577
212,264,survey-html-form,26,325499,mjmjc05dn0crxmr,633e13ba656728259b9f46cb,2,8982.199999988079,,,"{""select"":""select0.4""}",,,,,,,select_shuffled,Deer_2786_Dog_8202
213,265,survey-html-form,27,333758,mjmjc05dn0crxmr,633e13ba656728259b9f46cb,2,8255.699999988079,,,"{""select"":""select0.6""}",,,,,,,select_shuffled,Cat_9121_Deer_8566
214,266,survey-html-form,28,346186,mjmjc05dn0crxmr,633e13ba656728259b9f46cb,2,12424.900000035765,,,"{""select"":""select0.6""}",,,,,,,select_shuffled,Automobile_104_Horse_2652
215,267,survey-html-form,29,355403,mjmjc05dn0crxmr,633e13ba656728259b9f46cb,2,9213.400000035765,,,"{""select"":""select0.5""}",,,,,,,select_shuffled,Deer_2260_Horse_9855
216,268,survey-html-form,30,366414,mjmjc05dn0crxmr,633e13ba656728259b9f46cb,2,11007.799999952316,,,"{""select"":""select1.0""}",,,,,,,select_shuffled,Airplane_3497_Ship_8913
217,269,survey-html-form,31,372930,mjmjc05dn0crxmr,633e13ba656728259b9f46cb,2,6512.899999976158,,,"{""select"":""select0.2""}",,,,,,,select_shuffled,Deer_557_Ship_8226
218,270,survey-html-form,32,379684,mjmjc05dn0crxmr,633e13ba656728259b9f46cb,2,6751.099999964237,,,"{""select"":""select0.4""}",,,,,,,select_shuffled,Dog_3748_Horse_5690
219,271,survey-html-form,33,386076,mjmjc05dn0crxmr,633e13ba656728259b9f46cb,2,6388.900000035763,,,"{""select"":""select0.4""}",,,,,,,select_shuffled,Airplane_8777_Truck_139
220,272,survey-html-form,34,398795,mjmjc05dn0crxmr,633e13ba656728259b9f46cb,2,12716.100000023842,,,"{""select"":""select0.5""}",,,,,,,select_shuffled,Dog_810_Ship_582
221,273,survey-html-form,35,408664,mjmjc05dn0crxmr,633e13ba656728259b9f46cb,2,9865.80000001192,,,"{""select"":""select0.6""}",,,,,,,select_shuffled,Dog_6065_Frog_772
222,274,survey-html-form,36,418688,mjmjc05dn0crxmr,633e13ba656728259b9f46cb,2,10021.69999998808,,,"{""select"":""select0.4""}",,,,,,,rerun_select_shuffled,Cat_8420_Deer_5252
223,275,survey-html-form,37,427078,mjmjc05dn0crxmr,633e13ba656728259b9f46cb,2,8386.800000011921,,,"{""select"":""select0.6""}",,,,,,,rerun_select_shuffled,Deer_7039_Frog_1452
224,283,survey-html-form,6,119923,d8djz1wkxkrfmv3,633e13ba656728259b9f46cb,4,16573.700000047684,,,"{""select"":""select0.5""}",,,,,,,select_shuffled,Automobile_3370_Horse_2734
225,284,survey-html-form,7,140456,d8djz1wkxkrfmv3,633e13ba656728259b9f46cb,4,20523.29999995232,,,"{""select"":""select0.4""}",,,,,,,select_shuffled,Deer_9711_Horse_3187
226,285,survey-html-form,8,156290,d8djz1wkxkrfmv3,633e13ba656728259b9f46cb,4,15827.799999952316,,,"{""select"":""select0.5""}",,,,,,,select_shuffled,Airplane_4824_Truck_4719
227,286,survey-html-form,9,168065,d8djz1wkxkrfmv3,633e13ba656728259b9f46cb,4,11764.5,,,"{""select"":""select0.5""}",,,,,,,select_shuffled,Cat_4346_Truck_4932
228,287,survey-html-form,10,181535,d8djz1wkxkrfmv3,633e13ba656728259b9f46cb,4,13459.600000023842,,,"{""select"":""select0.7""}",,,,,,,select_shuffled,Bird_2383_Dog_9098
229,288,survey-html-form,11,189269,d8djz1wkxkrfmv3,633e13ba656728259b9f46cb,4,7725.0,,,"{""select"":""select0.5""}",,,,,,,select_shuffled,Automobile_947_Cat_4760
230,289,survey-html-form,12,207366,d8djz1wkxkrfmv3,633e13ba656728259b9f46cb,4,18088.0,,,"{""select"":""select0.9""}",,,,,,,select_shuffled,Automobile_2712_Truck_2433
231,290,survey-html-form,13,222625,d8djz1wkxkrfmv3,633e13ba656728259b9f46cb,4,15249.600000023842,,,"{""select"":""select0.6""}",,,,,,,select_shuffled,Airplane_74_Dog_3610
232,291,survey-html-form,14,237828,d8djz1wkxkrfmv3,633e13ba656728259b9f46cb,4,15193.100000023842,,,"{""select"":""select0.7""}",,,,,,,select_shuffled,Airplane_1719_Automobile_4425
233,292,survey-html-form,15,253968,d8djz1wkxkrfmv3,633e13ba656728259b9f46cb,4,16131.600000023842,,,"{""select"":""select0.6""}",,,,,,,select_shuffled,Ship_337_Truck_2305
234,293,survey-html-form,16,264606,d8djz1wkxkrfmv3,633e13ba656728259b9f46cb,4,10629.300000071526,,,"{""select"":""select0.6""}",,,,,,,select_shuffled,Bird_3934_Dog_6890
235,294,survey-html-form,17,277300,d8djz1wkxkrfmv3,633e13ba656728259b9f46cb,4,12684.899999976158,,,"{""select"":""select0.3""}",,,,,,,select_shuffled,Airplane_4040_Bird_2097
236,295,survey-html-form,18,291910,d8djz1wkxkrfmv3,633e13ba656728259b9f46cb,4,14601.100000023842,,,"{""select"":""select0.3""}",,,,,,,select_shuffled,Bird_7821_Ship_2380
237,296,survey-html-form,19,311942,d8djz1wkxkrfmv3,633e13ba656728259b9f46cb,4,20021.79999995232,,,"{""select"":""select0.6""}",,,,,,,select_shuffled,Ship_3357_Truck_5958
238,297,survey-html-form,20,322116,d8djz1wkxkrfmv3,633e13ba656728259b9f46cb,4,10163.200000047684,,,"{""select"":""select0.5""}",,,,,,,select_shuffled,Automobile_2484_Truck_1697
239,298,survey-html-form,21,338063,d8djz1wkxkrfmv3,633e13ba656728259b9f46cb,4,15936.700000047684,,,"{""select"":""select0.5""}",,,,,,,select_shuffled,Dog_3748_Horse_5690
240,299,survey-html-form,22,354145,d8djz1wkxkrfmv3,633e13ba656728259b9f46cb,4,16072.600000023842,,,"{""select"":""select0.3""}",,,,,,,select_shuffled,Deer_1945_Dog_9376
241,300,survey-html-form,23,366591,d8djz1wkxkrfmv3,633e13ba656728259b9f46cb,4,12437.200000047684,,,"{""select"":""select0.4""}",,,,,,,select_shuffled,Automobile_3553_Horse_7751
242,301,survey-html-form,24,376831,d8djz1wkxkrfmv3,633e13ba656728259b9f46cb,4,10230.699999928474,,,"{""select"":""select0.4""}",,,,,,,select_shuffled,Cat_4652_Truck_4550
243,302,survey-html-form,25,393145,d8djz1wkxkrfmv3,633e13ba656728259b9f46cb,4,16305.5,,,"{""select"":""select0.5""}",,,,,,,select_shuffled,Cat_3572_Dog_6564
244,303,survey-html-form,26,403124,d8djz1wkxkrfmv3,633e13ba656728259b9f46cb,4,9969.200000047684,,,"{""select"":""select0.4""}",,,,,,,select_shuffled,Automobile_4549_Cat_1377
245,304,survey-html-form,27,422451,d8djz1wkxkrfmv3,633e13ba656728259b9f46cb,4,19315.89999997616,,,"{""select"":""select0.3""}",,,,,,,select_shuffled,Cat_78_Deer_1015
246,305,survey-html-form,28,435126,d8djz1wkxkrfmv3,633e13ba656728259b9f46cb,4,12672.600000023842,,,"{""select"":""select0.5""}",,,,,,,select_shuffled,Automobile_366_Dog_8115
247,306,survey-html-form,29,448148,d8djz1wkxkrfmv3,633e13ba656728259b9f46cb,4,13011.399999976158,,,"{""select"":""select0.5""}",,,,,,,select_shuffled,Airplane_4216_Horse_6266
248,307,survey-html-form,30,459818,d8djz1wkxkrfmv3,633e13ba656728259b9f46cb,4,11655.399999976158,,,"{""select"":""select0.7""}",,,,,,,select_shuffled,Ship_8441_Truck_5521
249,308,survey-html-form,31,470541,d8djz1wkxkrfmv3,633e13ba656728259b9f46cb,4,10714.0,,,"{""select"":""select0.4""}",,,,,,,select_shuffled,Airplane_8909_Dog_1793
250,309,survey-html-form,32,483408,d8djz1wkxkrfmv3,633e13ba656728259b9f46cb,4,12857.5,,,"{""select"":""select0.5""}",,,,,,,select_shuffled,Bird_4873_Deer_4677
251,310,survey-html-form,33,498037,d8djz1wkxkrfmv3,633e13ba656728259b9f46cb,4,14620.200000047684,,,"{""select"":""select0.6""}",,,,,,,select_shuffled,Bird_6145_Cat_7399
252,311,survey-html-form,34,508979,d8djz1wkxkrfmv3,633e13ba656728259b9f46cb,4,10932.5,,,"{""select"":""select0.5""}",,,,,,,select_shuffled,Dog_478_Truck_9099
253,312,survey-html-form,35,521110,d8djz1wkxkrfmv3,633e13ba656728259b9f46cb,4,12121.5,,,"{""select"":""select0.8""}",,,,,,,select_shuffled,Deer_8086_Truck_4952
254,313,survey-html-form,36,532560,d8djz1wkxkrfmv3,633e13ba656728259b9f46cb,4,11440.200000047684,,,"{""select"":""select0.4""}",,,,,,,rerun_select_shuffled,Automobile_947_Cat_4760
255,314,survey-html-form,37,540678,d8djz1wkxkrfmv3,633e13ba656728259b9f46cb,4,8109.300000071526,,,"{""select"":""select0.6""}",,,,,,,rerun_select_shuffled,Bird_3934_Dog_6890
256,322,survey-html-form,6,734251,vdtm3k90sqdt8u9,633e13ba656728259b9f46cb,1,107584.0,,,"{""select"":""select0.4""}",,,,,,,select_shuffled,Airplane_6400_Deer_9858
257,323,survey-html-form,7,788089,vdtm3k90sqdt8u9,633e13ba656728259b9f46cb,1,53833.0,,,"{""select"":""select0.6""}",,,,,,,select_shuffled,Dog_9939_Horse_3836
258,324,survey-html-form,8,825617,vdtm3k90sqdt8u9,633e13ba656728259b9f46cb,1,37524.0,,,"{""select"":""select0.6""}",,,,,,,select_shuffled,Horse_5070_Truck_4595
259,325,survey-html-form,9,896004,vdtm3k90sqdt8u9,633e13ba656728259b9f46cb,1,70384.0,,,"{""select"":""select0.6""}",,,,,,,select_shuffled,Frog_8792_Ship_2921
260,326,survey-html-form,10,924294,vdtm3k90sqdt8u9,633e13ba656728259b9f46cb,1,28285.0,,,"{""select"":""select0.3""}",,,,,,,select_shuffled,Bird_1150_Frog_7917
261,327,survey-html-form,11,1031949,vdtm3k90sqdt8u9,633e13ba656728259b9f46cb,1,107653.0,,,"{""select"":""select0.6""}",,,,,,,select_shuffled,Cat_515_Horse_4046
262,328,survey-html-form,12,1085834,vdtm3k90sqdt8u9,633e13ba656728259b9f46cb,1,53879.0,,,"{""select"":""select0.5""}",,,,,,,select_shuffled,Horse_9444_Truck_853
263,329,survey-html-form,13,1131217,vdtm3k90sqdt8u9,633e13ba656728259b9f46cb,1,45379.0,,,"{""select"":""select0.5""}",,,,,,,select_shuffled,Dog_148_Truck_6840
264,330,survey-html-form,14,1192713,vdtm3k90sqdt8u9,633e13ba656728259b9f46cb,1,61493.0,,,"{""select"":""select0.6""}",,,,,,,select_shuffled,Horse_57_Ship_2476
265,331,survey-html-form,15,1237196,vdtm3k90sqdt8u9,633e13ba656728259b9f46cb,1,44479.0,,,"{""select"":""select0.6""}",,,,,,,select_shuffled,Bird_2811_Truck_9303
266,332,survey-html-form,16,1297024,vdtm3k90sqdt8u9,633e13ba656728259b9f46cb,1,59826.0,,,"{""select"":""select0.6""}",,,,,,,select_shuffled,Bird_2774_Ship_5249
267,333,survey-html-form,17,1356900,vdtm3k90sqdt8u9,633e13ba656728259b9f46cb,1,59871.0,,,"{""select"":""select0.4""}",,,,,,,select_shuffled,Airplane_9633_Bird_8756
268,334,survey-html-form,18,1425439,vdtm3k90sqdt8u9,633e13ba656728259b9f46cb,1,68536.0,,,"{""select"":""select0.6""}",,,,,,,select_shuffled,Airplane_2614_Bird_2566
269,335,survey-html-form,19,1452156,vdtm3k90sqdt8u9,633e13ba656728259b9f46cb,1,26714.0,,,"{""select"":""select0.4""}",,,,,,,select_shuffled,Airplane_1596_Frog_3615
270,336,survey-html-form,20,1482504,vdtm3k90sqdt8u9,633e13ba656728259b9f46cb,1,30344.0,,,"{""select"":""select0.5""}",,,,,,,select_shuffled,Automobile_2838_Horse_2062
271,337,survey-html-form,21,1562680,vdtm3k90sqdt8u9,633e13ba656728259b9f46cb,1,80175.0,,,"{""select"":""select0.6""}",,,,,,,select_shuffled,Cat_9722_Horse_60
272,338,survey-html-form,22,1603072,vdtm3k90sqdt8u9,633e13ba656728259b9f46cb,1,40388.0,,,"{""select"":""select0.6""}",,,,,,,select_shuffled,Deer_3559_Horse_5541
273,339,survey-html-form,23,1666229,vdtm3k90sqdt8u9,633e13ba656728259b9f46cb,1,63155.0,,,"{""select"":""select0.6""}",,,,,,,select_shuffled,Bird_3076_Frog_1394
274,340,survey-html-form,24,1718887,vdtm3k90sqdt8u9,633e13ba656728259b9f46cb,1,52655.0,,,"{""select"":""select0.3""}",,,,,,,select_shuffled,Automobile_894_Ship_80
275,341,survey-html-form,25,1773939,vdtm3k90sqdt8u9,633e13ba656728259b9f46cb,1,55049.0,,,"{""select"":""select0.4""}",,,,,,,select_shuffled,Automobile_2484_Truck_1697
276,342,survey-html-form,26,1812175,vdtm3k90sqdt8u9,633e13ba656728259b9f46cb,1,38231.0,,,"{""select"":""select0.6""}",,,,,,,select_shuffled,Automobile_6493_Frog_8250
277,343,survey-html-form,27,1861441,vdtm3k90sqdt8u9,633e13ba656728259b9f46cb,1,49263.0,,,"{""select"":""select0.4""}",,,,,,,select_shuffled,Airplane_9196_Ship_5427
278,344,survey-html-form,28,1885624,vdtm3k90sqdt8u9,633e13ba656728259b9f46cb,1,24179.0,,,"{""select"":""select0.3""}",,,,,,,select_shuffled,Automobile_2813_Truck_8727
279,345,survey-html-form,29,1912683,vdtm3k90sqdt8u9,633e13ba656728259b9f46cb,1,27056.0,,,"{""select"":""select0.5""}",,,,,,,select_shuffled,Dog_1901_Ship_600
280,346,survey-html-form,30,1932966,vdtm3k90sqdt8u9,633e13ba656728259b9f46cb,1,20280.0,,,"{""select"":""select0.5""}",,,,,,,select_shuffled,Automobile_6832_Frog_347
281,347,survey-html-form,31,1962880,vdtm3k90sqdt8u9,633e13ba656728259b9f46cb,1,29911.0,,,"{""select"":""select0.5""}",,,,,,,select_shuffled,Deer_8622_Truck_1104
282,348,survey-html-form,32,2018091,vdtm3k90sqdt8u9,633e13ba656728259b9f46cb,1,55209.0,,,"{""select"":""select0.4""}",,,,,,,select_shuffled,Automobile_3988_Bird_7348
283,349,survey-html-form,33,2036756,vdtm3k90sqdt8u9,633e13ba656728259b9f46cb,1,18661.0,,,"{""select"":""select0.6""}",,,,,,,select_shuffled,Frog_3349_Horse_1560
284,350,survey-html-form,34,2063059,vdtm3k90sqdt8u9,633e13ba656728259b9f46cb,1,26301.0,,,"{""select"":""select0.4""}",,,,,,,select_shuffled,Frog_5175_Truck_6963
285,351,survey-html-form,35,2094799,vdtm3k90sqdt8u9,633e13ba656728259b9f46cb,1,31736.0,,,"{""select"":""select0.6""}",,,,,,,select_shuffled,Cat_7016_Dog_4860
286,352,survey-html-form,36,2125130,vdtm3k90sqdt8u9,633e13ba656728259b9f46cb,1,30329.0,,,"{""select"":""select0.5""}",,,,,,,rerun_select_shuffled,Cat_515_Horse_4046
287,353,survey-html-form,37,2140078,vdtm3k90sqdt8u9,633e13ba656728259b9f46cb,1,14943.0,,,"{""select"":""select0.6""}",,,,,,,rerun_select_shuffled,Bird_2774_Ship_5249
288,363,survey-html-form,8,141862,0j84566vnos2gvo,633e13ba656728259b9f46cb,5,10917.299999952316,,,"{""select"":""select0.5""}",,,,,,,select_shuffled,Horse_5096_Truck_9312
289,364,survey-html-form,9,147188,0j84566vnos2gvo,633e13ba656728259b9f46cb,5,5319.5,,,"{""select"":""select0.8""}",,,,,,,select_shuffled,Airplane_2628_Frog_9653
290,365,survey-html-form,10,158016,0j84566vnos2gvo,633e13ba656728259b9f46cb,5,10821.700000047684,,,"{""select"":""select0.3""}",,,,,,,select_shuffled,Airplane_8812_Bird_3076
291,366,survey-html-form,11,163850,0j84566vnos2gvo,633e13ba656728259b9f46cb,5,5830.600000143051,,,"{""select"":""select0.6""}",,,,,,,select_shuffled,Horse_6044_Ship_7600
292,367,survey-html-form,12,174206,0j84566vnos2gvo,633e13ba656728259b9f46cb,5,10350.700000047684,,,"{""select"":""select0.7""}",,,,,,,select_shuffled,Bird_5819_Dog_8776
293,368,survey-html-form,13,178931,0j84566vnos2gvo,633e13ba656728259b9f46cb,5,4721.0,,,"{""select"":""select0.6""}",,,,,,,select_shuffled,Airplane_6069_Horse_578
294,369,survey-html-form,14,184645,0j84566vnos2gvo,633e13ba656728259b9f46cb,5,5708.699999809265,,,"{""select"":""select0.3""}",,,,,,,select_shuffled,Cat_9310_Ship_9491
295,370,survey-html-form,15,191394,0j84566vnos2gvo,633e13ba656728259b9f46cb,5,6743.599999904633,,,"{""select"":""select0.4""}",,,,,,,select_shuffled,Airplane_6491_Frog_8781
296,371,survey-html-form,16,197310,0j84566vnos2gvo,633e13ba656728259b9f46cb,5,5907.099999904633,,,"{""select"":""select0.3""}",,,,,,,select_shuffled,Airplane_6057_Deer_9189
297,372,survey-html-form,17,203494,0j84566vnos2gvo,633e13ba656728259b9f46cb,5,6179.0,,,"{""select"":""select0.5""}",,,,,,,select_shuffled,Cat_2285_Frog_5513
298,373,survey-html-form,18,209204,0j84566vnos2gvo,633e13ba656728259b9f46cb,5,5706.100000143051,,,"{""select"":""select0.5""}",,,,,,,select_shuffled,Airplane_2200_Ship_1281
299,374,survey-html-form,19,220431,0j84566vnos2gvo,633e13ba656728259b9f46cb,5,11222.700000047684,,,"{""select"":""select0.7""}",,,,,,,select_shuffled,Airplane_258_Truck_744
300,375,survey-html-form,20,227816,0j84566vnos2gvo,633e13ba656728259b9f46cb,5,7380.799999952316,,,"{""select"":""select0.6""}",,,,,,,select_shuffled,Ship_6691_Truck_5674
301,376,survey-html-form,21,238146,0j84566vnos2gvo,633e13ba656728259b9f46cb,5,10324.900000095367,,,"{""select"":""select0.7""}",,,,,,,select_shuffled,Bird_7508_Frog_7690
302,377,survey-html-form,22,242618,0j84566vnos2gvo,633e13ba656728259b9f46cb,5,4465.599999904633,,,"{""select"":""select0.8""}",,,,,,,select_shuffled,Frog_4161_Truck_1439
303,378,survey-html-form,23,247259,0j84566vnos2gvo,633e13ba656728259b9f46cb,5,4636.0,,,"{""select"":""select0.4""}",,,,,,,select_shuffled,Dog_1818_Truck_5938
304,379,survey-html-form,24,250701,0j84566vnos2gvo,633e13ba656728259b9f46cb,5,3436.4000000953674,,,"{""select"":""select0.3""}",,,,,,,select_shuffled,Automobile_1882_Deer_4227
305,380,survey-html-form,25,257167,0j84566vnos2gvo,633e13ba656728259b9f46cb,5,6462.599999904633,,,"{""select"":""select0.6""}",,,,,,,select_shuffled,Deer_4114_Horse_1119
306,381,survey-html-form,26,271830,0j84566vnos2gvo,633e13ba656728259b9f46cb,5,14657.5,,,"{""select"":""select0.5""}",,,,,,,select_shuffled,Dog_2316_Horse_7086
307,382,survey-html-form,27,275469,0j84566vnos2gvo,633e13ba656728259b9f46cb,5,3635.0,,,"{""select"":""select0.5""}",,,,,,,select_shuffled,Automobile_7570_Cat_4094
308,383,survey-html-form,28,280454,0j84566vnos2gvo,633e13ba656728259b9f46cb,5,4981.399999856949,,,"{""select"":""select0.6""}",,,,,,,select_shuffled,Cat_2422_Truck_6579
309,384,survey-html-form,29,284373,0j84566vnos2gvo,633e13ba656728259b9f46cb,5,3914.400000095368,,,"{""select"":""select0.6""}",,,,,,,select_shuffled,Frog_2865_Horse_7935
310,385,survey-html-form,30,287739,0j84566vnos2gvo,633e13ba656728259b9f46cb,5,3362.399999856949,,,"{""select"":""select0.5""}",,,,,,,select_shuffled,Bird_354_Deer_6507
311,386,survey-html-form,31,291198,0j84566vnos2gvo,633e13ba656728259b9f46cb,5,3455.200000047684,,,"{""select"":""select0.4""}",,,,,,,select_shuffled,Horse_5558_Ship_7706
312,387,survey-html-form,32,297182,0j84566vnos2gvo,633e13ba656728259b9f46cb,5,5979.0,,,"{""select"":""select0.5""}",,,,,,,select_shuffled,Cat_6705_Frog_783
313,388,survey-html-form,33,302842,0j84566vnos2gvo,633e13ba656728259b9f46cb,5,5654.200000047684,,,"{""select"":""select0.5""}",,,,,,,select_shuffled,Airplane_2589_Cat_6202
314,389,survey-html-form,34,307861,0j84566vnos2gvo,633e13ba656728259b9f46cb,5,5015.700000047684,,,"{""select"":""select0.4""}",,,,,,,select_shuffled,Automobile_2813_Truck_8727
315,390,survey-html-form,35,315696,0j84566vnos2gvo,633e13ba656728259b9f46cb,5,7831.0,,,"{""select"":""select0.5""}",,,,,,,select_shuffled,Airplane_4270_Deer_849
316,391,survey-html-form,36,318576,0j84566vnos2gvo,633e13ba656728259b9f46cb,5,2874.600000143051,,,"{""select"":""select0.8""}",,,,,,,select_shuffled,Bird_1043_Horse_5464
317,392,survey-html-form,37,320622,0j84566vnos2gvo,633e13ba656728259b9f46cb,5,2041.0999999046328,,,"{""select"":""select0.8""}",,,,,,,select_shuffled,Cat_2175_Dog_8788
318,393,survey-html-form,38,324284,0j84566vnos2gvo,633e13ba656728259b9f46cb,5,3658.299999952316,,,"{""select"":""select0.7""}",,,,,,,rerun_select_shuffled,Airplane_6069_Horse_578
319,394,survey-html-form,39,329472,0j84566vnos2gvo,633e13ba656728259b9f46cb,5,5184.300000190735,,,"{""select"":""select0.3""}",,,,,,,rerun_select_shuffled,Airplane_2200_Ship_1281
320,402,survey-html-form,6,206262,t6mqdswbs41t30l,633e13ba656728259b9f46cb,2,37998.70000004768,,,"{""select"":""select0.5""}",,,,,,,select_shuffled,Automobile_887_Bird_8384
321,403,survey-html-form,7,217126,t6mqdswbs41t30l,633e13ba656728259b9f46cb,2,10856.900000095367,,,"{""select"":""select0.5""}",,,,,,,select_shuffled,Automobile_104_Horse_2652
322,404,survey-html-form,8,228890,t6mqdswbs41t30l,633e13ba656728259b9f46cb,2,11758.099999904633,,,"{""select"":""select0.6""}",,,,,,,select_shuffled,Automobile_5456_Frog_7606
323,405,survey-html-form,9,239810,t6mqdswbs41t30l,633e13ba656728259b9f46cb,2,10914.299999952316,,,"{""select"":""select0.5""}",,,,,,,select_shuffled,Airplane_8777_Truck_139
324,406,survey-html-form,10,254809,t6mqdswbs41t30l,633e13ba656728259b9f46cb,2,14992.799999952316,,,"{""select"":""select0.5""}",,,,,,,select_shuffled,Deer_7039_Frog_1452
325,407,survey-html-form,11,269221,t6mqdswbs41t30l,633e13ba656728259b9f46cb,2,14406.200000047684,,,"{""select"":""select0.5""}",,,,,,,select_shuffled,Deer_557_Ship_8226
326,408,survey-html-form,12,303794,t6mqdswbs41t30l,633e13ba656728259b9f46cb,2,34567.29999995232,,,"{""select"":""select0.5""}",,,,,,,select_shuffled,Dog_3748_Horse_5690
327,409,survey-html-form,13,316645,t6mqdswbs41t30l,633e13ba656728259b9f46cb,2,12844.599999904633,,,"{""select"":""select0.4""}",,,,,,,select_shuffled,Dog_810_Ship_582
328,410,survey-html-form,14,328412,t6mqdswbs41t30l,633e13ba656728259b9f46cb,2,11762.200000047684,,,"{""select"":""select0.6""}",,,,,,,select_shuffled,Cat_3023_Frog_4774
329,411,survey-html-form,15,352420,t6mqdswbs41t30l,633e13ba656728259b9f46cb,2,24001.200000047684,,,"{""select"":""select0.4""}",,,,,,,select_shuffled,Deer_2786_Dog_8202
330,412,survey-html-form,16,369788,t6mqdswbs41t30l,633e13ba656728259b9f46cb,2,17362.099999904633,,,"{""select"":""select0.5""}",,,,,,,select_shuffled,Cat_8420_Deer_5252
331,413,survey-html-form,17,383523,t6mqdswbs41t30l,633e13ba656728259b9f46cb,2,13728.900000095367,,,"{""select"":""select0.3""}",,,,,,,select_shuffled,Horse_7342_Truck_6795
332,414,survey-html-form,18,402796,t6mqdswbs41t30l,633e13ba656728259b9f46cb,2,19266.400000095367,,,"{""select"":""select0.6""}",,,,,,,select_shuffled,Dog_6065_Frog_772
333,415,survey-html-form,19,413996,t6mqdswbs41t30l,633e13ba656728259b9f46cb,2,11193.5,,,"{""select"":""select0.6""}",,,,,,,select_shuffled,Frog_8963_Truck_1841
334,416,survey-html-form,20,429703,t6mqdswbs41t30l,633e13ba656728259b9f46cb,2,15701.799999952316,,,"{""select"":""select0.6""}",,,,,,,select_shuffled,Airplane_9724_Automobile_6577
335,417,survey-html-form,21,445836,t6mqdswbs41t30l,633e13ba656728259b9f46cb,2,16126.299999952316,,,"{""select"":""select0.6""}",,,,,,,select_shuffled,Airplane_3497_Ship_8913
336,418,survey-html-form,22,458251,t6mqdswbs41t30l,633e13ba656728259b9f46cb,2,12409.099999904633,,,"{""select"":""select0.7""}",,,,,,,select_shuffled,Bird_9624_Deer_9585
337,419,survey-html-form,23,478866,t6mqdswbs41t30l,633e13ba656728259b9f46cb,2,20610.099999904636,,,"{""select"":""select0.7""}",,,,,,,select_shuffled,Cat_9121_Deer_8566
338,420,survey-html-form,24,488498,t6mqdswbs41t30l,633e13ba656728259b9f46cb,2,9626.099999904633,,,"{""select"":""select0.5""}",,,,,,,select_shuffled,Frog_3124_Ship_7142
339,421,survey-html-form,25,500274,t6mqdswbs41t30l,633e13ba656728259b9f46cb,2,11770.200000047684,,,"{""select"":""select0.7""}",,,,,,,select_shuffled,Airplane_7987_Dog_4906
340,422,survey-html-form,26,511090,t6mqdswbs41t30l,633e13ba656728259b9f46cb,2,10810.200000047684,,,"{""select"":""select0.5""}",,,,,,,select_shuffled,Horse_5096_Truck_9312
341,423,survey-html-form,27,526522,t6mqdswbs41t30l,633e13ba656728259b9f46cb,2,15426.199999809263,,,"{""select"":""select0.6""}",,,,,,,select_shuffled,Horse_1602_Ship_2527
342,424,survey-html-form,28,537127,t6mqdswbs41t30l,633e13ba656728259b9f46cb,2,10598.799999952316,,,"{""select"":""select0.6""}",,,,,,,select_shuffled,Bird_2977_Truck_626
343,425,survey-html-form,29,568157,t6mqdswbs41t30l,633e13ba656728259b9f46cb,2,31025.0,,,"{""select"":""select0.4""}",,,,,,,select_shuffled,Bird_5085_Frog_7066
344,426,survey-html-form,30,579957,t6mqdswbs41t30l,633e13ba656728259b9f46cb,2,11794.299999952316,,,"{""select"":""select0.5""}",,,,,,,select_shuffled,Cat_7807_Deer_4027
345,427,survey-html-form,31,593653,t6mqdswbs41t30l,633e13ba656728259b9f46cb,2,13689.100000143051,,,"{""select"":""select0.4""}",,,,,,,select_shuffled,Automobile_4948_Frog_4405
346,428,survey-html-form,32,609276,t6mqdswbs41t30l,633e13ba656728259b9f46cb,2,15617.399999856949,,,"{""select"":""select0.4""}",,,,,,,select_shuffled,Dog_8869_Horse_5096
347,429,survey-html-form,33,622724,t6mqdswbs41t30l,633e13ba656728259b9f46cb,2,13442.200000047684,,,"{""select"":""select0.5""}",,,,,,,select_shuffled,Automobile_887_Bird_8384
348,430,survey-html-form,34,643532,t6mqdswbs41t30l,633e13ba656728259b9f46cb,2,20802.0,,,"{""select"":""select0.4""}",,,,,,,select_shuffled,Deer_2260_Horse_9855
349,431,survey-html-form,35,658788,t6mqdswbs41t30l,633e13ba656728259b9f46cb,2,15250.199999809263,,,"{""select"":""select0.3""}",,,,,,,select_shuffled,Automobile_3527_Frog_300
350,432,survey-html-form,36,671224,t6mqdswbs41t30l,633e13ba656728259b9f46cb,2,12429.200000047684,,,"{""select"":""select0.4""}",,,,,,,rerun_select_shuffled,Deer_557_Ship_8226
351,433,survey-html-form,37,687101,t6mqdswbs41t30l,633e13ba656728259b9f46cb,2,15871.299999952316,,,"{""select"":""select0.5""}",,,,,,,rerun_select_shuffled,Cat_8420_Deer_5252
352,443,survey-html-form,8,134968,w040dg65qu60sp5,633e13ba656728259b9f46cb,1,21017.400000572205,,,"{""select"":""select0.6""}",,,,,,,select_shuffled,Horse_5070_Truck_4595
353,444,survey-html-form,9,142915,w040dg65qu60sp5,633e13ba656728259b9f46cb,1,7928.5,,,"{""select"":""select0.7""}",,,,,,,select_shuffled,Bird_2811_Truck_9303
354,445,survey-html-form,10,150037,w040dg65qu60sp5,633e13ba656728259b9f46cb,1,7108.699999809265,,,"{""select"":""select0.4""}",,,,,,,select_shuffled,Dog_1901_Ship_600
355,446,survey-html-form,11,157938,w040dg65qu60sp5,633e13ba656728259b9f46cb,1,7884.300000190735,,,"{""select"":""select0.4""}",,,,,,,select_shuffled,Automobile_6832_Frog_347
356,447,survey-html-form,12,169452,w040dg65qu60sp5,633e13ba656728259b9f46cb,1,11511.0,,,"{""select"":""select0.3""}",,,,,,,select_shuffled,Bird_1150_Frog_7917
357,448,survey-html-form,13,181030,w040dg65qu60sp5,633e13ba656728259b9f46cb,1,11573.79999923706,,,"{""select"":""select0.5""}",,,,,,,select_shuffled,Frog_8792_Ship_2921
358,449,survey-html-form,14,185869,w040dg65qu60sp5,633e13ba656728259b9f46cb,1,4823.599999427795,,,"{""select"":""select0.7""}",,,,,,,select_shuffled,Dog_148_Truck_6840
359,450,survey-html-form,15,189735,w040dg65qu60sp5,633e13ba656728259b9f46cb,1,3863.199999809265,,,"{""select"":""select0.4""}",,,,,,,select_shuffled,Automobile_2484_Truck_1697
360,451,survey-html-form,16,197560,w040dg65qu60sp5,633e13ba656728259b9f46cb,1,7818.89999961853,,,"{""select"":""select0.6""}",,,,,,,select_shuffled,Horse_57_Ship_2476
361,452,survey-html-form,17,205858,w040dg65qu60sp5,633e13ba656728259b9f46cb,1,8275.300000190735,,,"{""select"":""select0.6""}",,,,,,,select_shuffled,Cat_515_Horse_4046
362,453,survey-html-form,18,215661,w040dg65qu60sp5,633e13ba656728259b9f46cb,1,9797.0,,,"{""select"":""select0.4""}",,,,,,,select_shuffled,Airplane_9633_Bird_8756
363,454,survey-html-form,19,224905,w040dg65qu60sp5,633e13ba656728259b9f46cb,1,9231.699999809263,,,"{""select"":""select0.5""}",,,,,,,select_shuffled,Cat_9722_Horse_60
364,455,survey-html-form,20,229338,w040dg65qu60sp5,633e13ba656728259b9f46cb,1,4424.800000190735,,,"{""select"":""select0.3""}",,,,,,,select_shuffled,Airplane_6400_Deer_9858
365,456,survey-html-form,21,235143,w040dg65qu60sp5,633e13ba656728259b9f46cb,1,5790.099999427795,,,"{""select"":""select0.4""}",,,,,,,select_shuffled,Automobile_2838_Horse_2062
366,457,survey-html-form,22,249282,w040dg65qu60sp5,633e13ba656728259b9f46cb,1,14126.60000038147,,,"{""select"":""select0.7""}",,,,,,,select_shuffled,Frog_3349_Horse_1560
367,458,survey-html-form,23,256930,w040dg65qu60sp5,633e13ba656728259b9f46cb,1,7633.200000762939,,,"{""select"":""select0.4""}",,,,,,,select_shuffled,Cat_7016_Dog_4860
368,459,survey-html-form,24,263654,w040dg65qu60sp5,633e13ba656728259b9f46cb,1,6709.299999237061,,,"{""select"":""select0.2""}",,,,,,,select_shuffled,Automobile_894_Ship_80
369,460,survey-html-form,25,269531,w040dg65qu60sp5,633e13ba656728259b9f46cb,1,5861.599999427795,,,"{""select"":""select0.5""}",,,,,,,select_shuffled,Automobile_3988_Bird_7348
370,461,survey-html-form,26,274447,w040dg65qu60sp5,633e13ba656728259b9f46cb,1,4908.199999809265,,,"{""select"":""select0.6""}",,,,,,,select_shuffled,Dog_9939_Horse_3836
371,462,survey-html-form,27,280787,w040dg65qu60sp5,633e13ba656728259b9f46cb,1,6336.700000762939,,,"{""select"":""select0.6""}",,,,,,,select_shuffled,Bird_2774_Ship_5249
372,463,survey-html-form,28,291513,w040dg65qu60sp5,633e13ba656728259b9f46cb,1,10720.300000190737,,,"{""select"":""select0.7""}",,,,,,,select_shuffled,Airplane_1596_Frog_3615
373,464,survey-html-form,29,302170,w040dg65qu60sp5,633e13ba656728259b9f46cb,1,10645.20000076294,,,"{""select"":""select0.5""}",,,,,,,select_shuffled,Deer_8622_Truck_1104
374,465,survey-html-form,30,311790,w040dg65qu60sp5,633e13ba656728259b9f46cb,1,9602.800000190737,,,"{""select"":""select0.3""}",,,,,,,select_shuffled,Automobile_2813_Truck_8727
375,466,survey-html-form,31,329265,w040dg65qu60sp5,633e13ba656728259b9f46cb,1,17460.199999809265,,,"{""select"":""select0.8""}",,,,,,,select_shuffled,Automobile_6493_Frog_8250
376,467,survey-html-form,32,336988,w040dg65qu60sp5,633e13ba656728259b9f46cb,1,7705.400000572205,,,"{""select"":""select0.5""}",,,,,,,select_shuffled,Horse_9444_Truck_853
377,468,survey-html-form,33,344592,w040dg65qu60sp5,633e13ba656728259b9f46cb,1,7588.699999809265,,,"{""select"":""select0.7""}",,,,,,,select_shuffled,Airplane_9196_Ship_5427
378,469,survey-html-form,34,351459,w040dg65qu60sp5,633e13ba656728259b9f46cb,1,6862.10000038147,,,"{""select"":""select0.4""}",,,,,,,select_shuffled,Airplane_2614_Bird_2566
379,470,survey-html-form,35,358832,w040dg65qu60sp5,633e13ba656728259b9f46cb,1,7361.800000190735,,,"{""select"":""select0.6""}",,,,,,,select_shuffled,Deer_3559_Horse_5541
380,471,survey-html-form,36,367056,w040dg65qu60sp5,633e13ba656728259b9f46cb,1,8217.0,,,"{""select"":""select0.7""}",,,,,,,select_shuffled,Frog_5175_Truck_6963
381,472,survey-html-form,37,373484,w040dg65qu60sp5,633e13ba656728259b9f46cb,1,6423.10000038147,,,"{""select"":""select0.6""}",,,,,,,select_shuffled,Bird_3076_Frog_1394
382,473,survey-html-form,38,378507,w040dg65qu60sp5,633e13ba656728259b9f46cb,1,5007.60000038147,,,"{""select"":""select0.6""}",,,,,,,rerun_select_shuffled,Frog_8792_Ship_2921
383,474,survey-html-form,39,382326,w040dg65qu60sp5,633e13ba656728259b9f46cb,1,3799.1000003814697,,,"{""select"":""select0.6""}",,,,,,,rerun_select_shuffled,Airplane_9633_Bird_8756
384,482,survey-html-form,6,117499,mbqtt2mkngtr0ap,633e13ba656728259b9f46cb,2,11840.20000000298,,,"{""select"":""select0.5""}",,,,,,,select_shuffled,Dog_8869_Horse_5096
385,483,survey-html-form,7,129121,mbqtt2mkngtr0ap,633e13ba656728259b9f46cb,2,11617.90000000596,,,"{""select"":""select0.5""}",,,,,,,select_shuffled,Cat_9121_Deer_8566
386,484,survey-html-form,8,134450,mbqtt2mkngtr0ap,633e13ba656728259b9f46cb,2,5325.899999991059,,,"{""select"":""select0.6""}",,,,,,,select_shuffled,Automobile_104_Horse_2652
387,485,survey-html-form,9,143889,mbqtt2mkngtr0ap,633e13ba656728259b9f46cb,2,9435.29999999702,,,"{""select"":""select0.6""}",,,,,,,select_shuffled,Automobile_887_Bird_8384
388,486,survey-html-form,10,154533,mbqtt2mkngtr0ap,633e13ba656728259b9f46cb,2,10640.09999999404,,,"{""select"":""select0.5""}",,,,,,,select_shuffled,Deer_2260_Horse_9855
389,487,survey-html-form,11,161765,mbqtt2mkngtr0ap,633e13ba656728259b9f46cb,2,7227.599999994039,,,"{""select"":""select0.4""}",,,,,,,select_shuffled,Automobile_5456_Frog_7606
390,488,survey-html-form,12,169547,mbqtt2mkngtr0ap,633e13ba656728259b9f46cb,2,7777.5,,,"{""select"":""select0.5""}",,,,,,,select_shuffled,Automobile_3527_Frog_300
391,489,survey-html-form,13,176098,mbqtt2mkngtr0ap,633e13ba656728259b9f46cb,2,6547.9000000059605,,,"{""select"":""select0.8""}",,,,,,,select_shuffled,Cat_7807_Deer_4027
392,490,survey-html-form,14,183348,mbqtt2mkngtr0ap,633e13ba656728259b9f46cb,2,7246.29999999702,,,"{""select"":""select0.4""}",,,,,,,select_shuffled,Dog_810_Ship_582
393,491,survey-html-form,15,194613,mbqtt2mkngtr0ap,633e13ba656728259b9f46cb,2,11260.59999999404,,,"{""select"":""select0.4""}",,,,,,,select_shuffled,Dog_6065_Frog_772
394,492,survey-html-form,16,204911,mbqtt2mkngtr0ap,633e13ba656728259b9f46cb,2,10293.0,,,"{""select"":""select0.2""}",,,,,,,select_shuffled,Bird_5085_Frog_7066
395,493,survey-html-form,17,212673,mbqtt2mkngtr0ap,633e13ba656728259b9f46cb,2,7758.399999991059,,,"{""select"":""select0.4""}",,,,,,,select_shuffled,Airplane_7987_Dog_4906
396,494,survey-html-form,18,219029,mbqtt2mkngtr0ap,633e13ba656728259b9f46cb,2,6351.9000000059605,,,"{""select"":""select0.7""}",,,,,,,select_shuffled,Dog_3748_Horse_5690
397,495,survey-html-form,19,231197,mbqtt2mkngtr0ap,633e13ba656728259b9f46cb,2,12164.5,,,"{""select"":""select0.7""}",,,,,,,select_shuffled,Cat_3023_Frog_4774
398,496,survey-html-form,20,239121,mbqtt2mkngtr0ap,633e13ba656728259b9f46cb,2,7920.5,,,"{""select"":""select0.5""}",,,,,,,select_shuffled,Frog_3124_Ship_7142
399,497,survey-html-form,21,252779,mbqtt2mkngtr0ap,633e13ba656728259b9f46cb,2,13653.90000000596,,,"{""select"":""select0.8""}",,,,,,,select_shuffled,Bird_2977_Truck_626
400,498,survey-html-form,22,262857,mbqtt2mkngtr0ap,633e13ba656728259b9f46cb,2,10074.20000000298,,,"{""select"":""select0.5""}",,,,,,,select_shuffled,Airplane_8777_Truck_139
401,499,survey-html-form,23,271531,mbqtt2mkngtr0ap,633e13ba656728259b9f46cb,2,8668.70000000298,,,"{""select"":""select0.5""}",,,,,,,select_shuffled,Cat_8420_Deer_5252
402,500,survey-html-form,24,282509,mbqtt2mkngtr0ap,633e13ba656728259b9f46cb,2,10974.79999999702,,,"{""select"":""select0.5""}",,,,,,,select_shuffled,Deer_557_Ship_8226
403,501,survey-html-form,25,291425,mbqtt2mkngtr0ap,633e13ba656728259b9f46cb,2,8912.20000000298,,,"{""select"":""select0.7""}",,,,,,,select_shuffled,Airplane_3497_Ship_8913
404,502,survey-html-form,26,305745,mbqtt2mkngtr0ap,633e13ba656728259b9f46cb,2,14316.09999999404,,,"{""select"":""select0.5""}",,,,,,,select_shuffled,Airplane_9724_Automobile_6577
405,503,survey-html-form,27,321223,mbqtt2mkngtr0ap,633e13ba656728259b9f46cb,2,15474.10000000894,,,"{""select"":""select0.7""}",,,,,,,select_shuffled,Deer_2786_Dog_8202
406,504,survey-html-form,28,332952,mbqtt2mkngtr0ap,633e13ba656728259b9f46cb,2,11724.39999999106,,,"{""select"":""select0.6""}",,,,,,,select_shuffled,Automobile_4948_Frog_4405
407,505,survey-html-form,29,341106,mbqtt2mkngtr0ap,633e13ba656728259b9f46cb,2,8149.300000011921,,,"{""select"":""select0.6""}",,,,,,,select_shuffled,Automobile_887_Bird_8384
408,506,survey-html-form,30,348973,mbqtt2mkngtr0ap,633e13ba656728259b9f46cb,2,7863.199999988079,,,"{""select"":""select0.6""}",,,,,,,select_shuffled,Deer_7039_Frog_1452
409,507,survey-html-form,31,357805,mbqtt2mkngtr0ap,633e13ba656728259b9f46cb,2,8828.29999999702,,,"{""select"":""select0.6""}",,,,,,,select_shuffled,Bird_9624_Deer_9585
410,508,survey-html-form,32,365942,mbqtt2mkngtr0ap,633e13ba656728259b9f46cb,2,8133.399999991059,,,"{""select"":""select0.4""}",,,,,,,select_shuffled,Horse_5096_Truck_9312
411,509,survey-html-form,33,371686,mbqtt2mkngtr0ap,633e13ba656728259b9f46cb,2,5740.199999988079,,,"{""select"":""select0.5""}",,,,,,,select_shuffled,Horse_7342_Truck_6795
412,510,survey-html-form,34,380216,mbqtt2mkngtr0ap,633e13ba656728259b9f46cb,2,8526.79999999702,,,"{""select"":""select0.4""}",,,,,,,select_shuffled,Horse_1602_Ship_2527
413,511,survey-html-form,35,383199,mbqtt2mkngtr0ap,633e13ba656728259b9f46cb,2,2979.0,,,"{""select"":""select0.5""}",,,,,,,select_shuffled,Frog_8963_Truck_1841
414,512,survey-html-form,36,387114,mbqtt2mkngtr0ap,633e13ba656728259b9f46cb,2,3912.29999999702,,,"{""select"":""select0.5""}",,,,,,,rerun_select_shuffled,Automobile_5456_Frog_7606
415,513,survey-html-form,37,394926,mbqtt2mkngtr0ap,633e13ba656728259b9f46cb,2,7808.40000000596,,,"{""select"":""select0.4""}",,,,,,,rerun_select_shuffled,Bird_5085_Frog_7066
416,521,survey-html-form,6,287565,uhjch97gtov24zj,633e13ba656728259b9f46cb,8,41396.30000001192,,,"{""select"":""select0.4""}",,,,,,,select_shuffled,Bird_5738_Truck_9324
417,522,survey-html-form,7,310844,uhjch97gtov24zj,633e13ba656728259b9f46cb,8,23273.10000002384,,,"{""select"":""select0.4""}",,,,,,,select_shuffled,Cat_1050_Ship_6524
418,523,survey-html-form,8,330359,uhjch97gtov24zj,633e13ba656728259b9f46cb,8,19508.89999997616,,,"{""select"":""select0.5""}",,,,,,,select_shuffled,Frog_3446_Ship_6737
419,524,survey-html-form,9,363300,uhjch97gtov24zj,633e13ba656728259b9f46cb,8,32934.39999997616,,,"{""select"":""select0.6""}",,,,,,,select_shuffled,Bird_755_Horse_3890
420,525,survey-html-form,10,378796,uhjch97gtov24zj,633e13ba656728259b9f46cb,8,15489.80000001192,,,"{""select"":""select0.5""}",,,,,,,select_shuffled,Automobile_6742_Cat_6311
421,526,survey-html-form,11,391132,uhjch97gtov24zj,633e13ba656728259b9f46cb,8,12331.700000047684,,,"{""select"":""select0.5""}",,,,,,,select_shuffled,Cat_1603_Dog_9798
422,527,survey-html-form,12,414188,uhjch97gtov24zj,633e13ba656728259b9f46cb,8,23050.69999998808,,,"{""select"":""select0.7""}",,,,,,,select_shuffled,Bird_5085_Horse_1169
423,528,survey-html-form,13,508894,uhjch97gtov24zj,633e13ba656728259b9f46cb,8,94701.10000002384,,,"{""select"":""select0.6""}",,,,,,,select_shuffled,Airplane_8777_Truck_139
424,529,survey-html-form,14,523499,uhjch97gtov24zj,633e13ba656728259b9f46cb,8,14599.69999998808,,,"{""select"":""select0.5""}",,,,,,,select_shuffled,Dog_8045_Frog_9641
425,530,survey-html-form,15,556900,uhjch97gtov24zj,633e13ba656728259b9f46cb,8,33395.59999996424,,,"{""select"":""select0.5""}",,,,,,,select_shuffled,Dog_5692_Truck_585
426,531,survey-html-form,16,578094,uhjch97gtov24zj,633e13ba656728259b9f46cb,8,21188.69999998808,,,"{""select"":""select0.4""}",,,,,,,select_shuffled,Automobile_2645_Dog_4764
427,532,survey-html-form,17,601524,uhjch97gtov24zj,633e13ba656728259b9f46cb,8,23425.09999996424,,,"{""select"":""select0.6""}",,,,,,,select_shuffled,Airplane_778_Frog_7183
428,533,survey-html-form,18,635439,uhjch97gtov24zj,633e13ba656728259b9f46cb,8,33909.200000047684,,,"{""select"":""select0.6""}",,,,,,,select_shuffled,Deer_9715_Dog_1854
429,534,survey-html-form,19,660504,uhjch97gtov24zj,633e13ba656728259b9f46cb,8,25060.19999998808,,,"{""select"":""select0.4""}",,,,,,,select_shuffled,Airplane_3497_Ship_8913
430,535,survey-html-form,20,706370,uhjch97gtov24zj,633e13ba656728259b9f46cb,8,45860.20000004768,,,"{""select"":""select0.3""}",,,,,,,select_shuffled,Dog_8170_Frog_6693
431,536,survey-html-form,21,716085,uhjch97gtov24zj,633e13ba656728259b9f46cb,8,9709.899999976158,,,"{""select"":""select0.5""}",,,,,,,select_shuffled,Horse_1934_Ship_6296
432,537,survey-html-form,22,750327,uhjch97gtov24zj,633e13ba656728259b9f46cb,8,34236.39999997616,,,"{""select"":""select0.4""}",,,,,,,select_shuffled,Airplane_6494_Deer_3507
433,538,survey-html-form,23,764476,uhjch97gtov24zj,633e13ba656728259b9f46cb,8,14145.099999964235,,,"{""select"":""select0.7""}",,,,,,,select_shuffled,Horse_87_Truck_3409
434,539,survey-html-form,24,837132,uhjch97gtov24zj,633e13ba656728259b9f46cb,8,72647.80000001192,,,"{""select"":""select0.2""}",,,,,,,select_shuffled,Automobile_2607_Ship_3151
435,540,survey-html-form,25,849497,uhjch97gtov24zj,633e13ba656728259b9f46cb,8,12359.5,,,"{""select"":""select0.5""}",,,,,,,select_shuffled,Deer_6992_Dog_7828
436,541,survey-html-form,26,861393,uhjch97gtov24zj,633e13ba656728259b9f46cb,8,11890.899999976158,,,"{""select"":""select0.5""}",,,,,,,select_shuffled,Dog_6127_Frog_9569
437,542,survey-html-form,27,933267,uhjch97gtov24zj,633e13ba656728259b9f46cb,8,71868.30000001192,,,"{""select"":""select0.4""}",,,,,,,select_shuffled,Automobile_5108_Ship_6602
438,543,survey-html-form,28,944194,uhjch97gtov24zj,633e13ba656728259b9f46cb,8,10922.30000001192,,,"{""select"":""select0.4""}",,,,,,,select_shuffled,Bird_1196_Horse_643
439,544,survey-html-form,29,954707,uhjch97gtov24zj,633e13ba656728259b9f46cb,8,10507.5,,,"{""select"":""select0.3""}",,,,,,,select_shuffled,Dog_2525_Truck_1082
440,545,survey-html-form,30,1032133,uhjch97gtov24zj,633e13ba656728259b9f46cb,8,77419.09999996424,,,"{""select"":""select0.6""}",,,,,,,select_shuffled,Frog_2702_Horse_1780
441,546,survey-html-form,31,1042403,uhjch97gtov24zj,633e13ba656728259b9f46cb,8,10264.600000023842,,,"{""select"":""select0.4""}",,,,,,,select_shuffled,Deer_1821_Ship_3686
442,547,survey-html-form,32,1069625,uhjch97gtov24zj,633e13ba656728259b9f46cb,8,27216.39999997616,,,"{""select"":""select0.4""}",,,,,,,select_shuffled,Airplane_8925_Bird_751
443,548,survey-html-form,33,1085389,uhjch97gtov24zj,633e13ba656728259b9f46cb,8,15759.30000001192,,,"{""select"":""select0.6""}",,,,,,,select_shuffled,Airplane_6985_Cat_1612
444,549,survey-html-form,34,1092450,uhjch97gtov24zj,633e13ba656728259b9f46cb,8,7055.0,,,"{""select"":""select0.5""}",,,,,,,select_shuffled,Airplane_6118_Deer_6855
445,550,survey-html-form,35,1100968,uhjch97gtov24zj,633e13ba656728259b9f46cb,8,8513.799999952316,,,"{""select"":""select0.6""}",,,,,,,select_shuffled,Deer_9393_Truck_4588
446,551,survey-html-form,36,1119322,uhjch97gtov24zj,633e13ba656728259b9f46cb,8,18348.10000002384,,,"{""select"":""select0.4""}",,,,,,,rerun_select_shuffled,Cat_1603_Dog_9798
447,552,survey-html-form,37,1126639,uhjch97gtov24zj,633e13ba656728259b9f46cb,8,7310.5,,,"{""select"":""select0.4""}",,,,,,,rerun_select_shuffled,Automobile_2645_Dog_4764
448,560,survey-html-form,6,283560,cksdr932ym8sz8n,633e13ba656728259b9f46cb,2,20566.29999995232,,,"{""select"":""select0.5""}",,,,,,,select_shuffled,Airplane_8777_Truck_139
449,561,survey-html-form,7,290809,cksdr932ym8sz8n,633e13ba656728259b9f46cb,2,7245.900000095367,,,"{""select"":""select0.6""}",,,,,,,select_shuffled,Automobile_104_Horse_2652
450,562,survey-html-form,8,298746,cksdr932ym8sz8n,633e13ba656728259b9f46cb,2,7934.700000047684,,,"{""select"":""select0.6""}",,,,,,,select_shuffled,Automobile_887_Bird_8384
451,563,survey-html-form,9,306139,cksdr932ym8sz8n,633e13ba656728259b9f46cb,2,7390.400000095367,,,"{""select"":""select0.6""}",,,,,,,select_shuffled,Automobile_4948_Frog_4405
452,564,survey-html-form,10,313100,cksdr932ym8sz8n,633e13ba656728259b9f46cb,2,6958.700000047684,,,"{""select"":""select0.6""}",,,,,,,select_shuffled,Airplane_7987_Dog_4906
453,565,survey-html-form,11,325245,cksdr932ym8sz8n,633e13ba656728259b9f46cb,2,12142.700000047684,,,"{""select"":""select0.5""}",,,,,,,select_shuffled,Deer_557_Ship_8226
454,566,survey-html-form,12,329926,cksdr932ym8sz8n,633e13ba656728259b9f46cb,2,4678.0,,,"{""select"":""select0.7""}",,,,,,,select_shuffled,Cat_3023_Frog_4774
455,567,survey-html-form,13,335670,cksdr932ym8sz8n,633e13ba656728259b9f46cb,2,5742.200000047684,,,"{""select"":""select0.5""}",,,,,,,select_shuffled,Airplane_3497_Ship_8913
456,568,survey-html-form,14,342063,cksdr932ym8sz8n,633e13ba656728259b9f46cb,2,6390.5,,,"{""select"":""select0.5""}",,,,,,,select_shuffled,Dog_8869_Horse_5096
457,569,survey-html-form,15,349656,cksdr932ym8sz8n,633e13ba656728259b9f46cb,2,7590.700000047684,,,"{""select"":""select0.4""}",,,,,,,select_shuffled,Deer_2786_Dog_8202
458,570,survey-html-form,16,355457,cksdr932ym8sz8n,633e13ba656728259b9f46cb,2,5798.299999952316,,,"{""select"":""select0.6""}",,,,,,,select_shuffled,Cat_7807_Deer_4027
459,571,survey-html-form,17,362226,cksdr932ym8sz8n,633e13ba656728259b9f46cb,2,6766.599999904633,,,"{""select"":""select0.6""}",,,,,,,select_shuffled,Horse_7342_Truck_6795
460,572,survey-html-form,18,370355,cksdr932ym8sz8n,633e13ba656728259b9f46cb,2,8126.799999952316,,,"{""select"":""select0.3""}",,,,,,,select_shuffled,Bird_5085_Frog_7066
461,573,survey-html-form,19,380812,cksdr932ym8sz8n,633e13ba656728259b9f46cb,2,10454.799999952316,,,"{""select"":""select0.7""}",,,,,,,select_shuffled,Bird_9624_Deer_9585
462,574,survey-html-form,20,384781,cksdr932ym8sz8n,633e13ba656728259b9f46cb,2,3965.599999904633,,,"{""select"":""select0.3""}",,,,,,,select_shuffled,Horse_1602_Ship_2527
463,575,survey-html-form,21,392918,cksdr932ym8sz8n,633e13ba656728259b9f46cb,2,8135.299999952316,,,"{""select"":""select0.6""}",,,,,,,select_shuffled,Bird_2977_Truck_626
464,576,survey-html-form,22,400286,cksdr932ym8sz8n,633e13ba656728259b9f46cb,2,7362.799999952316,,,"{""select"":""select0.5""}",,,,,,,select_shuffled,Frog_3124_Ship_7142
465,577,survey-html-form,23,412192,cksdr932ym8sz8n,633e13ba656728259b9f46cb,2,11903.199999809263,,,"{""select"":""select0.5""}",,,,,,,select_shuffled,Dog_810_Ship_582
466,578,survey-html-form,24,419224,cksdr932ym8sz8n,633e13ba656728259b9f46cb,2,7030.700000047684,,,"{""select"":""select0.4""}",,,,,,,select_shuffled,Cat_8420_Deer_5252
467,579,survey-html-form,25,424481,cksdr932ym8sz8n,633e13ba656728259b9f46cb,2,5254.599999904633,,,"{""select"":""select0.4""}",,,,,,,select_shuffled,Automobile_887_Bird_8384
468,580,survey-html-form,26,429610,cksdr932ym8sz8n,633e13ba656728259b9f46cb,2,5126.5,,,"{""select"":""select0.6""}",,,,,,,select_shuffled,Horse_5096_Truck_9312
469,581,survey-html-form,27,438347,cksdr932ym8sz8n,633e13ba656728259b9f46cb,2,8735.299999952316,,,"{""select"":""select0.5""}",,,,,,,select_shuffled,Dog_6065_Frog_772
470,582,survey-html-form,28,445380,cksdr932ym8sz8n,633e13ba656728259b9f46cb,2,7030.100000143051,,,"{""select"":""select0.7""}",,,,,,,select_shuffled,Cat_9121_Deer_8566
471,583,survey-html-form,29,458478,cksdr932ym8sz8n,633e13ba656728259b9f46cb,2,13095.300000190737,,,"{""select"":""select0.4""}",,,,,,,select_shuffled,Airplane_9724_Automobile_6577
472,584,survey-html-form,30,487201,cksdr932ym8sz8n,633e13ba656728259b9f46cb,2,28720.599999904636,,,"{""select"":""select0.5""}",,,,,,,select_shuffled,Deer_7039_Frog_1452
473,585,survey-html-form,31,491850,cksdr932ym8sz8n,633e13ba656728259b9f46cb,2,4645.0,,,"{""select"":""select0.5""}",,,,,,,select_shuffled,Dog_3748_Horse_5690
474,586,survey-html-form,32,496642,cksdr932ym8sz8n,633e13ba656728259b9f46cb,2,4790.300000190735,,,"{""select"":""select0.4""}",,,,,,,select_shuffled,Frog_8963_Truck_1841
475,587,survey-html-form,33,503499,cksdr932ym8sz8n,633e13ba656728259b9f46cb,2,6854.600000143051,,,"{""select"":""select0.3""}",,,,,,,select_shuffled,Automobile_5456_Frog_7606
476,588,survey-html-form,34,527622,cksdr932ym8sz8n,633e13ba656728259b9f46cb,2,24120.39999985695,,,"{""select"":""select0.5""}",,,,,,,select_shuffled,Deer_2260_Horse_9855
477,589,survey-html-form,35,537023,cksdr932ym8sz8n,633e13ba656728259b9f46cb,2,9398.700000047684,,,"{""select"":""select0.4""}",,,,,,,select_shuffled,Automobile_3527_Frog_300
478,590,survey-html-form,36,545632,cksdr932ym8sz8n,633e13ba656728259b9f46cb,2,8606.399999856949,,,"{""select"":""select0.4""}",,,,,,,rerun_select_shuffled,Deer_557_Ship_8226
479,591,survey-html-form,37,550161,cksdr932ym8sz8n,633e13ba656728259b9f46cb,2,4526.299999952316,,,"{""select"":""select0.4""}",,,,,,,rerun_select_shuffled,Cat_7807_Deer_4027
480,599,survey-html-form,6,301953,y7487djvr393jfm,633e13ba656728259b9f46cb,2,17790.100000023842,,,"{""select"":""select0.5""}",,,,,,,select_shuffled,Dog_810_Ship_582
481,600,survey-html-form,7,315815,y7487djvr393jfm,633e13ba656728259b9f46cb,2,13841.100000023842,,,"{""select"":""select0.4""}",,,,,,,select_shuffled,Deer_557_Ship_8226
482,601,survey-html-form,8,328002,y7487djvr393jfm,633e13ba656728259b9f46cb,2,12165.700000047684,,,"{""select"":""select0.4""}",,,,,,,select_shuffled,Horse_5096_Truck_9312
483,602,survey-html-form,9,338389,y7487djvr393jfm,633e13ba656728259b9f46cb,2,10364.100000023842,,,"{""select"":""select0.7""}",,,,,,,select_shuffled,Airplane_7987_Dog_4906
484,603,survey-html-form,10,347192,y7487djvr393jfm,633e13ba656728259b9f46cb,2,8786.699999928474,,,"{""select"":""select0.5""}",,,,,,,select_shuffled,Automobile_5456_Frog_7606
485,604,survey-html-form,11,354915,y7487djvr393jfm,633e13ba656728259b9f46cb,2,7704.399999976158,,,"{""select"":""select0.6""}",,,,,,,select_shuffled,Automobile_887_Bird_8384
486,605,survey-html-form,12,367383,y7487djvr393jfm,633e13ba656728259b9f46cb,2,12454.5,,,"{""select"":""select0.6""}",,,,,,,select_shuffled,Deer_7039_Frog_1452
487,606,survey-html-form,13,375555,y7487djvr393jfm,633e13ba656728259b9f46cb,2,8155.5,,,"{""select"":""select0.5""}",,,,,,,select_shuffled,Automobile_3527_Frog_300
488,607,survey-html-form,14,381326,y7487djvr393jfm,633e13ba656728259b9f46cb,2,5755.700000047684,,,"{""select"":""select0.3""}",,,,,,,select_shuffled,Horse_7342_Truck_6795
489,608,survey-html-form,15,388647,y7487djvr393jfm,633e13ba656728259b9f46cb,2,7303.600000023842,,,"{""select"":""select0.4""}",,,,,,,select_shuffled,Dog_3748_Horse_5690
490,609,survey-html-form,16,399477,y7487djvr393jfm,633e13ba656728259b9f46cb,2,10812.0,,,"{""select"":""select0.4""}",,,,,,,select_shuffled,Frog_3124_Ship_7142
491,610,survey-html-form,17,408441,y7487djvr393jfm,633e13ba656728259b9f46cb,2,8947.100000023842,,,"{""select"":""select0.5""}",,,,,,,select_shuffled,Dog_6065_Frog_772
492,611,survey-html-form,18,418521,y7487djvr393jfm,633e13ba656728259b9f46cb,2,10064.299999952316,,,"{""select"":""select0.4""}",,,,,,,select_shuffled,Dog_8869_Horse_5096
493,612,survey-html-form,19,444947,y7487djvr393jfm,633e13ba656728259b9f46cb,2,26405.89999997616,,,"{""select"":""select0.6""}",,,,,,,select_shuffled,Cat_9121_Deer_8566
494,613,survey-html-form,20,451515,y7487djvr393jfm,633e13ba656728259b9f46cb,2,6550.299999952316,,,"{""select"":""select0.6""}",,,,,,,select_shuffled,Bird_2977_Truck_626
495,614,survey-html-form,21,458155,y7487djvr393jfm,633e13ba656728259b9f46cb,2,6616.299999952316,,,"{""select"":""select0.5""}",,,,,,,select_shuffled,Automobile_4948_Frog_4405
496,615,survey-html-form,22,465695,y7487djvr393jfm,633e13ba656728259b9f46cb,2,7521.0,,,"{""select"":""select0.5""}",,,,,,,select_shuffled,Frog_8963_Truck_1841
497,616,survey-html-form,23,473703,y7487djvr393jfm,633e13ba656728259b9f46cb,2,7988.600000023842,,,"{""select"":""select0.6""}",,,,,,,select_shuffled,Automobile_887_Bird_8384
498,617,survey-html-form,24,483202,y7487djvr393jfm,633e13ba656728259b9f46cb,2,9482.0,,,"{""select"":""select0.4""}",,,,,,,select_shuffled,Deer_2786_Dog_8202
499,618,survey-html-form,25,491949,y7487djvr393jfm,633e13ba656728259b9f46cb,2,8729.799999952316,,,"{""select"":""select0.2""}",,,,,,,select_shuffled,Horse_1602_Ship_2527
500,619,survey-html-form,26,502977,y7487djvr393jfm,633e13ba656728259b9f46cb,2,11010.100000023842,,,"{""select"":""select0.5""}",,,,,,,select_shuffled,Bird_5085_Frog_7066
501,620,survey-html-form,27,514964,y7487djvr393jfm,633e13ba656728259b9f46cb,2,11969.899999976158,,,"{""select"":""select0.5""}",,,,,,,select_shuffled,Airplane_3497_Ship_8913
502,621,survey-html-form,28,524369,y7487djvr393jfm,633e13ba656728259b9f46cb,2,9386.399999976158,,,"{""select"":""select0.5""}",,,,,,,select_shuffled,Airplane_8777_Truck_139
503,622,survey-html-form,29,533984,y7487djvr393jfm,633e13ba656728259b9f46cb,2,9598.699999928474,,,"{""select"":""select0.6""}",,,,,,,select_shuffled,Airplane_9724_Automobile_6577
504,623,survey-html-form,30,544156,y7487djvr393jfm,633e13ba656728259b9f46cb,2,10152.700000047684,,,"{""select"":""select0.6""}",,,,,,,select_shuffled,Automobile_104_Horse_2652
505,624,survey-html-form,31,555488,y7487djvr393jfm,633e13ba656728259b9f46cb,2,11312.0,,,"{""select"":""select0.7""}",,,,,,,select_shuffled,Bird_9624_Deer_9585
506,625,survey-html-form,32,569600,y7487djvr393jfm,633e13ba656728259b9f46cb,2,14093.5,,,"{""select"":""select0.4""}",,,,,,,select_shuffled,Cat_7807_Deer_4027
507,626,survey-html-form,33,580926,y7487djvr393jfm,633e13ba656728259b9f46cb,2,11301.199999928474,,,"{""select"":""select0.4""}",,,,,,,select_shuffled,Deer_2260_Horse_9855
508,627,survey-html-form,34,589802,y7487djvr393jfm,633e13ba656728259b9f46cb,2,8860.199999928474,,,"{""select"":""select0.5""}",,,,,,,select_shuffled,Cat_8420_Deer_5252
509,628,survey-html-form,35,599834,y7487djvr393jfm,633e13ba656728259b9f46cb,2,10011.699999928474,,,"{""select"":""select0.5""}",,,,,,,select_shuffled,Cat_3023_Frog_4774
510,629,survey-html-form,36,609837,y7487djvr393jfm,633e13ba656728259b9f46cb,2,9981.700000047684,,,"{""select"":""select0.7""}",,,,,,,rerun_select_shuffled,Automobile_887_Bird_8384
511,630,survey-html-form,37,618520,y7487djvr393jfm,633e13ba656728259b9f46cb,2,8663.600000023842,,,"{""select"":""select0.4""}",,,,,,,rerun_select_shuffled,Frog_3124_Ship_7142
512,638,survey-html-form,6,494181,0ycjkuuq44jgqj8,633e13ba656728259b9f46cb,0,80993.09999999404,,,"{""select"":""select0.4""}",,,,,,,select_shuffled,Automobile_2504_Dog_9098
513,639,survey-html-form,7,541306,0ycjkuuq44jgqj8,633e13ba656728259b9f46cb,0,47123.40000000596,,,"{""select"":""select0.6""}",,,,,,,select_shuffled,Automobile_2773_Deer_4985
514,640,survey-html-form,8,591850,0ycjkuuq44jgqj8,633e13ba656728259b9f46cb,0,50541.69999998808,,,"{""select"":""select0.6""}",,,,,,,select_shuffled,Deer_6753_Frog_1578
515,641,survey-html-form,9,632175,0ycjkuuq44jgqj8,633e13ba656728259b9f46cb,0,40322.5,,,"{""select"":""select0.6""}",,,,,,,select_shuffled,Cat_1593_Horse_1201
516,642,survey-html-form,10,657868,0ycjkuuq44jgqj8,633e13ba656728259b9f46cb,0,25691.59999999404,,,"{""select"":""select0.4""}",,,,,,,select_shuffled,Automobile_9535_Ship_7765
517,643,survey-html-form,11,680893,0ycjkuuq44jgqj8,633e13ba656728259b9f46cb,0,23023.19999998808,,,"{""select"":""select0.6""}",,,,,,,select_shuffled,Deer_583_Horse_6667
518,644,survey-html-form,12,696077,0ycjkuuq44jgqj8,633e13ba656728259b9f46cb,0,15182.09999999404,,,"{""select"":""select0.6""}",,,,,,,select_shuffled,Frog_3588_Ship_404
519,645,survey-html-form,13,708941,0ycjkuuq44jgqj8,633e13ba656728259b9f46cb,0,12861.5,,,"{""select"":""select0.5""}",,,,,,,select_shuffled,Automobile_9197_Deer_8914
520,646,survey-html-form,14,734590,0ycjkuuq44jgqj8,633e13ba656728259b9f46cb,0,25647.0,,,"{""select"":""select0.5""}",,,,,,,select_shuffled,Automobile_5366_Frog_6330
521,647,survey-html-form,15,746732,0ycjkuuq44jgqj8,633e13ba656728259b9f46cb,0,12139.40000000596,,,"{""select"":""select0.6""}",,,,,,,select_shuffled,Airplane_847_Horse_9554
522,648,survey-html-form,16,761898,0ycjkuuq44jgqj8,633e13ba656728259b9f46cb,0,15164.19999998808,,,"{""select"":""select0.3""}",,,,,,,select_shuffled,Automobile_5079_Deer_5654
523,649,survey-html-form,17,771679,0ycjkuuq44jgqj8,633e13ba656728259b9f46cb,0,9779.69999998808,,,"{""select"":""select0.5""}",,,,,,,select_shuffled,Cat_6596_Ship_6975
524,650,survey-html-form,18,780315,0ycjkuuq44jgqj8,633e13ba656728259b9f46cb,0,8634.59999999404,,,"{""select"":""select0.6""}",,,,,,,select_shuffled,Bird_6519_Cat_1445
525,651,survey-html-form,19,840317,0ycjkuuq44jgqj8,633e13ba656728259b9f46cb,0,60000.0,,,"{""select"":""select0.6""}",,,,,,,select_shuffled,Automobile_8811_Horse_3332
526,652,survey-html-form,20,858241,0ycjkuuq44jgqj8,633e13ba656728259b9f46cb,0,17921.5,,,"{""select"":""select0.5""}",,,,,,,select_shuffled,Airplane_6491_Frog_8781
527,653,survey-html-form,21,876125,0ycjkuuq44jgqj8,633e13ba656728259b9f46cb,0,17882.20000001788,,,"{""select"":""select0.6""}",,,,,,,select_shuffled,Deer_9393_Truck_4588
528,654,survey-html-form,22,892681,0ycjkuuq44jgqj8,633e13ba656728259b9f46cb,0,16553.69999998808,,,"{""select"":""select0.6""}",,,,,,,select_shuffled,Bird_4729_Horse_2682
529,655,survey-html-form,23,909185,0ycjkuuq44jgqj8,633e13ba656728259b9f46cb,0,16502.90000000596,,,"{""select"":""select0.7""}",,,,,,,select_shuffled,Airplane_9354_Automobile_7484
530,656,survey-html-form,24,934340,0ycjkuuq44jgqj8,633e13ba656728259b9f46cb,0,25152.69999998808,,,"{""select"":""select0.6""}",,,,,,,select_shuffled,Cat_5817_Ship_909
531,657,survey-html-form,25,942414,0ycjkuuq44jgqj8,633e13ba656728259b9f46cb,0,8071.40000000596,,,"{""select"":""select0.5""}",,,,,,,select_shuffled,Cat_7496_Ship_260
532,658,survey-html-form,26,961021,0ycjkuuq44jgqj8,633e13ba656728259b9f46cb,0,18605.20000001788,,,"{""select"":""select0.6""}",,,,,,,select_shuffled,Bird_7104_Truck_9692
533,659,survey-html-form,27,972854,0ycjkuuq44jgqj8,633e13ba656728259b9f46cb,0,11831.30000001192,,,"{""select"":""select0.6""}",,,,,,,select_shuffled,Automobile_3066_Ship_959
534,660,survey-html-form,28,993151,0ycjkuuq44jgqj8,633e13ba656728259b9f46cb,0,20294.79999998212,,,"{""select"":""select0.5""}",,,,,,,select_shuffled,Automobile_3565_Dog_3849
535,661,survey-html-form,29,1008829,0ycjkuuq44jgqj8,633e13ba656728259b9f46cb,0,15675.90000000596,,,"{""select"":""select0.7""}",,,,,,,select_shuffled,Cat_6647_Horse_7703
536,662,survey-html-form,30,1027651,0ycjkuuq44jgqj8,633e13ba656728259b9f46cb,0,18820.5,,,"{""select"":""select0.5""}",,,,,,,select_shuffled,Airplane_2535_Horse_4332
537,663,survey-html-form,31,1046666,0ycjkuuq44jgqj8,633e13ba656728259b9f46cb,0,19012.40000000596,,,"{""select"":""select0.5""}",,,,,,,select_shuffled,Cat_650_Horse_4951
538,664,survey-html-form,32,1053370,0ycjkuuq44jgqj8,633e13ba656728259b9f46cb,0,6702.699999988079,,,"{""select"":""select0.6""}",,,,,,,select_shuffled,Airplane_4792_Frog_8881
539,665,survey-html-form,33,1061455,0ycjkuuq44jgqj8,633e13ba656728259b9f46cb,0,8082.300000011921,,,"{""select"":""select0.6""}",,,,,,,select_shuffled,Cat_8739_Frog_7333
540,666,survey-html-form,34,1093700,0ycjkuuq44jgqj8,633e13ba656728259b9f46cb,0,32244.0,,,"{""select"":""select0.5""}",,,,,,,select_shuffled,Bird_1723_Deer_7654
541,667,survey-html-form,35,1113493,0ycjkuuq44jgqj8,633e13ba656728259b9f46cb,0,19790.29999998212,,,"{""select"":""select0.4""}",,,,,,,select_shuffled,Airplane_7428_Dog_5504
542,668,survey-html-form,36,1129136,0ycjkuuq44jgqj8,633e13ba656728259b9f46cb,0,15641.69999998808,,,"{""select"":""select0.6""}",,,,,,,rerun_select_shuffled,Deer_583_Horse_6667
543,669,survey-html-form,37,1138844,0ycjkuuq44jgqj8,633e13ba656728259b9f46cb,0,9705.79999998212,,,"{""select"":""select0.4""}",,,,,,,rerun_select_shuffled,Automobile_5079_Deer_5654
544,677,survey-html-form,6,260127,txjwws04mm914ty,633e13ba656728259b9f46cb,3,74444.90000000596,,,"{""select"":""select0.5""}",,,,,,,select_shuffled,Bird_8166_Frog_3563
545,678,survey-html-form,7,268076,txjwws04mm914ty,633e13ba656728259b9f46cb,3,7942.399999991059,,,"{""select"":""select0.5""}",,,,,,,select_shuffled,Bird_2199_Dog_6782
546,679,survey-html-form,8,289544,txjwws04mm914ty,633e13ba656728259b9f46cb,3,21462.0,,,"{""select"":""select0.4""}",,,,,,,select_shuffled,Airplane_4606_Ship_5355
547,680,survey-html-form,9,303243,txjwws04mm914ty,633e13ba656728259b9f46cb,3,13693.59999999404,,,"{""select"":""select0.6""}",,,,,,,select_shuffled,Frog_5567_Truck_1114
548,681,survey-html-form,10,342493,txjwws04mm914ty,633e13ba656728259b9f46cb,3,39244.09999999404,,,"{""select"":""select0.5""}",,,,,,,select_shuffled,Automobile_3091_Ship_6141
549,682,survey-html-form,11,353559,txjwws04mm914ty,633e13ba656728259b9f46cb,3,11058.90000000596,,,"{""select"":""select0.4""}",,,,,,,select_shuffled,Dog_1901_Ship_600
550,683,survey-html-form,12,370842,txjwws04mm914ty,633e13ba656728259b9f46cb,3,17278.10000000894,,,"{""select"":""select0.6""}",,,,,,,select_shuffled,Bird_9891_Deer_32
551,684,survey-html-form,13,399542,txjwws04mm914ty,633e13ba656728259b9f46cb,3,28694.80000001192,,,"{""select"":""select0.6""}",,,,,,,select_shuffled,Ship_8717_Truck_8922
552,685,survey-html-form,14,408859,txjwws04mm914ty,633e13ba656728259b9f46cb,3,9311.0,,,"{""select"":""select0.4""}",,,,,,,select_shuffled,Deer_254_Ship_9015
553,686,survey-html-form,15,419792,txjwws04mm914ty,633e13ba656728259b9f46cb,3,10927.39999999106,,,"{""select"":""select0.5""}",,,,,,,select_shuffled,Dog_3452_Ship_5990
554,687,survey-html-form,16,427725,txjwws04mm914ty,633e13ba656728259b9f46cb,3,7926.899999991059,,,"{""select"":""select0.5""}",,,,,,,select_shuffled,Dog_5098_Truck_442
555,688,survey-html-form,17,459292,txjwws04mm914ty,633e13ba656728259b9f46cb,3,31562.0,,,"{""select"":""select0.6""}",,,,,,,select_shuffled,Deer_1300_Frog_6731
556,689,survey-html-form,18,465641,txjwws04mm914ty,633e13ba656728259b9f46cb,3,6343.9000000059605,,,"{""select"":""select0.5""}",,,,,,,select_shuffled,Airplane_3511_Automobile_7535
557,690,survey-html-form,19,475226,txjwws04mm914ty,633e13ba656728259b9f46cb,3,9580.0,,,"{""select"":""select0.3""}",,,,,,,select_shuffled,Dog_5178_Ship_3366
558,691,survey-html-form,20,482740,txjwws04mm914ty,633e13ba656728259b9f46cb,3,7508.90000000596,,,"{""select"":""select0.4""}",,,,,,,select_shuffled,Deer_3203_Ship_3821
559,692,survey-html-form,21,492006,txjwws04mm914ty,633e13ba656728259b9f46cb,3,9260.09999999404,,,"{""select"":""select0.7""}",,,,,,,select_shuffled,Bird_7845_Dog_3424
560,693,survey-html-form,22,520707,txjwws04mm914ty,633e13ba656728259b9f46cb,3,28697.09999999404,,,"{""select"":""select0.7""}",,,,,,,select_shuffled,Airplane_4666_Cat_7905
561,694,survey-html-form,23,547807,txjwws04mm914ty,633e13ba656728259b9f46cb,3,27094.20000000298,,,"{""select"":""select0.6""}",,,,,,,select_shuffled,Bird_6981_Cat_2698
562,695,survey-html-form,24,569290,txjwws04mm914ty,633e13ba656728259b9f46cb,3,21478.5,,,"{""select"":""select0.8""}",,,,,,,select_shuffled,Airplane_1726_Automobile_657
563,696,survey-html-form,25,620556,txjwws04mm914ty,633e13ba656728259b9f46cb,3,51261.0,,,"{""select"":""select0.5""}",,,,,,,select_shuffled,Deer_2501_Ship_9083
564,697,survey-html-form,26,667623,txjwws04mm914ty,633e13ba656728259b9f46cb,3,47062.20000000298,,,"{""select"":""select0.3""}",,,,,,,select_shuffled,Automobile_9179_Cat_3513
565,698,survey-html-form,27,677890,txjwws04mm914ty,633e13ba656728259b9f46cb,3,10262.09999999404,,,"{""select"":""select0.4""}",,,,,,,select_shuffled,Cat_2422_Ship_5140
566,699,survey-html-form,28,696956,txjwws04mm914ty,633e13ba656728259b9f46cb,3,19060.5,,,"{""select"":""select0.5""}",,,,,,,select_shuffled,Cat_121_Truck_5192
567,700,survey-html-form,29,713739,txjwws04mm914ty,633e13ba656728259b9f46cb,3,16777.5,,,"{""select"":""select0.3""}",,,,,,,select_shuffled,Deer_2442_Frog_1972
568,701,survey-html-form,30,723055,txjwws04mm914ty,633e13ba656728259b9f46cb,3,9311.0,,,"{""select"":""select0.5""}",,,,,,,select_shuffled,Automobile_9916_Deer_718
569,702,survey-html-form,31,733689,txjwws04mm914ty,633e13ba656728259b9f46cb,3,10627.90000000596,,,"{""select"":""select0.5""}",,,,,,,select_shuffled,Cat_3633_Truck_9552
570,703,survey-html-form,32,740939,txjwws04mm914ty,633e13ba656728259b9f46cb,3,7244.399999991059,,,"{""select"":""select0.9""}",,,,,,,select_shuffled,Airplane_6985_Cat_1612
571,704,survey-html-form,33,818431,txjwws04mm914ty,633e13ba656728259b9f46cb,3,77477.40000000596,,,"{""select"":""select0.5""}",,,,,,,select_shuffled,Deer_324_Truck_1384
572,705,survey-html-form,34,826781,txjwws04mm914ty,633e13ba656728259b9f46cb,3,8344.90000000596,,,"{""select"":""select0.6""}",,,,,,,select_shuffled,Deer_1300_Frog_6731
573,706,survey-html-form,35,835899,txjwws04mm914ty,633e13ba656728259b9f46cb,3,9111.90000000596,,,"{""select"":""select0.5""}",,,,,,,select_shuffled,Cat_78_Deer_1015
574,707,survey-html-form,36,850615,txjwws04mm914ty,633e13ba656728259b9f46cb,3,14710.80000001192,,,"{""select"":""select0.4""}",,,,,,,rerun_select_shuffled,Dog_1901_Ship_600
575,708,survey-html-form,37,858265,txjwws04mm914ty,633e13ba656728259b9f46cb,3,7644.20000000298,,,"{""select"":""select0.6""}",,,,,,,rerun_select_shuffled,Dog_5098_Truck_442
576,716,survey-html-form,6,212393,2aov27mdy2ppjr1,633e13ba656728259b9f46cb,6,16974.5,,,"{""select"":""select0.6""}",,,,,,,select_shuffled,Airplane_6648_Deer_6617
577,717,survey-html-form,7,243567,2aov27mdy2ppjr1,633e13ba656728259b9f46cb,6,31172.599999904636,,,"{""select"":""select0.6""}",,,,,,,select_shuffled,Cat_6102_Horse_4538
578,718,survey-html-form,8,255560,2aov27mdy2ppjr1,633e13ba656728259b9f46cb,6,11991.199999809263,,,"{""select"":""select0.3""}",,,,,,,select_shuffled,Airplane_4591_Dog_6199
579,719,survey-html-form,9,268493,2aov27mdy2ppjr1,633e13ba656728259b9f46cb,6,12931.299999952316,,,"{""select"":""select0.5""}",,,,,,,select_shuffled,Automobile_6464_Dog_6904
580,720,survey-html-form,10,284239,2aov27mdy2ppjr1,633e13ba656728259b9f46cb,6,15744.0,,,"{""select"":""select0.6""}",,,,,,,select_shuffled,Bird_5261_Truck_2184
581,721,survey-html-form,11,294298,2aov27mdy2ppjr1,633e13ba656728259b9f46cb,6,10057.299999952316,,,"{""select"":""select0.6""}",,,,,,,select_shuffled,Bird_2531_Cat_7015
582,722,survey-html-form,12,300272,2aov27mdy2ppjr1,633e13ba656728259b9f46cb,6,5972.299999952316,,,"{""select"":""select0.4""}",,,,,,,select_shuffled,Airplane_8812_Bird_3076
583,723,survey-html-form,13,306848,2aov27mdy2ppjr1,633e13ba656728259b9f46cb,6,6573.700000047684,,,"{""select"":""select0.5""}",,,,,,,select_shuffled,Horse_3327_Ship_9834
584,724,survey-html-form,14,313833,2aov27mdy2ppjr1,633e13ba656728259b9f46cb,6,6983.5,,,"{""select"":""select0.4""}",,,,,,,select_shuffled,Automobile_6940_Dog_8079
585,725,survey-html-form,15,323736,2aov27mdy2ppjr1,633e13ba656728259b9f46cb,6,9901.299999952316,,,"{""select"":""select0.5""}",,,,,,,select_shuffled,Bird_6109_Horse_8918
586,726,survey-html-form,16,340161,2aov27mdy2ppjr1,633e13ba656728259b9f46cb,6,16423.299999952316,,,"{""select"":""select0.3""}",,,,,,,select_shuffled,Automobile_4841_Deer_954
587,727,survey-html-form,17,348616,2aov27mdy2ppjr1,633e13ba656728259b9f46cb,6,8453.300000190735,,,"{""select"":""select0.6""}",,,,,,,select_shuffled,Frog_3160_Truck_7113
588,728,survey-html-form,18,364006,2aov27mdy2ppjr1,633e13ba656728259b9f46cb,6,15388.400000095367,,,"{""select"":""select0.6""}",,,,,,,select_shuffled,Deer_5957_Horse_5314
589,729,survey-html-form,19,377596,2aov27mdy2ppjr1,633e13ba656728259b9f46cb,6,13588.599999904633,,,"{""select"":""select0.4""}",,,,,,,select_shuffled,Cat_5925_Deer_9981
590,730,survey-html-form,20,388696,2aov27mdy2ppjr1,633e13ba656728259b9f46cb,6,11098.200000047684,,,"{""select"":""select0.4""}",,,,,,,select_shuffled,Bird_497_Ship_4539
591,731,survey-html-form,21,396942,2aov27mdy2ppjr1,633e13ba656728259b9f46cb,6,8244.200000047684,,,"{""select"":""select0.5""}",,,,,,,select_shuffled,Airplane_3258_Truck_3141
592,732,survey-html-form,22,406627,2aov27mdy2ppjr1,633e13ba656728259b9f46cb,6,9683.299999952316,,,"{""select"":""select0.4""}",,,,,,,select_shuffled,Dog_9939_Ship_2604
593,733,survey-html-form,23,420676,2aov27mdy2ppjr1,633e13ba656728259b9f46cb,6,14047.299999952316,,,"{""select"":""select0.3""}",,,,,,,select_shuffled,Frog_3400_Ship_8441
594,734,survey-html-form,24,433719,2aov27mdy2ppjr1,633e13ba656728259b9f46cb,6,13041.299999952316,,,"{""select"":""select0.5""}",,,,,,,select_shuffled,Frog_3588_Ship_404
595,735,survey-html-form,25,448699,2aov27mdy2ppjr1,633e13ba656728259b9f46cb,6,14978.600000143051,,,"{""select"":""select0.3""}",,,,,,,select_shuffled,Bird_2746_Ship_5257
