,index,trial_type,trial_index,time_elapsed,subject,study_id,condition,rt,url,view_history,response,question_order,success,timeout,failed_images,failed_audio,failed_video,responses,filename,task,subj_id,label1,label2,mixtureCoeff,id1,id2,class_pair
0,6,multiple-slider,6,220951,t3penhne8p144yo,633dba58fdd310c8d2d6d7e5,7,35999.5,,,,"[0,1]",,,,,,"{""mixingcoeff"":26,""confidence"":100}",mixed_0.5_Dog_2205_Frog_6908.png,rate_mixture,,Dog,Frog,0.5,2205.0,6908.0,Dog_2205_Frog_6908.png
1,7,multiple-slider,7,239207,t3penhne8p144yo,633dba58fdd310c8d2d6d7e5,7,18253.19999998808,,,,"[0,1]",,,,,,"{""mixingcoeff"":50,""confidence"":20}",mixed_0.5_Deer_3364_Horse_198.png,rate_mixture,,Deer,Horse,0.5,3364.0,198.0,Deer_3364_Horse_198.png
2,8,multiple-slider,8,254035,t3penhne8p144yo,633dba58fdd310c8d2d6d7e5,7,14822.69999998808,,,,"[0,1]",,,,,,"{""mixingcoeff"":100,""confidence"":100}",mixed_0.1_Airplane_4126_Frog_5936.png,rate_mixture,,Airplane,Frog,0.1,4126.0,5936.0,Airplane_4126_Frog_5936.png
3,9,multiple-slider,9,265619,t3penhne8p144yo,633dba58fdd310c8d2d6d7e5,7,11579.79999998212,,,,"[0,1]",,,,,,"{""mixingcoeff"":0,""confidence"":100}",mixed_0.75_Bird_8095_Deer_9701.png,rate_mixture,,Bird,Deer,0.75,8095.0,9701.0,Bird_8095_Deer_9701.png
4,10,multiple-slider,10,275563,t3penhne8p144yo,633dba58fdd310c8d2d6d7e5,7,9936.90000000596,,,,"[0,1]",,,,,,"{""mixingcoeff"":100,""confidence"":100}",mixed_0.25_Cat_336_Truck_2817.png,rate_mixture,,Cat,Truck,0.25,336.0,2817.0,Cat_336_Truck_2817.png
5,11,multiple-slider,11,292114,t3penhne8p144yo,633dba58fdd310c8d2d6d7e5,7,16548.5,,,,"[0,1]",,,,,,"{""mixingcoeff"":100,""confidence"":100}",mixed_0.25_Cat_453_Horse_4054.png,rate_mixture,,Cat,Horse,0.25,453.0,4054.0,Cat_453_Horse_4054.png
6,12,multiple-slider,12,304035,t3penhne8p144yo,633dba58fdd310c8d2d6d7e5,7,11922.0,,,,"[0,1]",,,,,,"{""mixingcoeff"":0,""confidence"":100}",mixed_0.9_Bird_1108_Horse_3241.png,rate_mixture,,Bird,Horse,0.9,1108.0,3241.0,Bird_1108_Horse_3241.png
7,13,multiple-slider,13,318183,t3penhne8p144yo,633dba58fdd310c8d2d6d7e5,7,14145.30000001192,,,,"[0,1]",,,,,,"{""mixingcoeff"":0,""confidence"":100}",mixed_0.9_Automobile_8238_Horse_5693.png,rate_mixture,,Automobile,Horse,0.9,8238.0,5693.0,Automobile_8238_Horse_5693.png
8,14,multiple-slider,14,333819,t3penhne8p144yo,633dba58fdd310c8d2d6d7e5,7,15633.5,,,,"[0,1]",,,,,,"{""mixingcoeff"":81,""confidence"":100}",mixed_0.1_Bird_6252_Truck_8054.png,rate_mixture,,Bird,Truck,0.1,6252.0,8054.0,Bird_6252_Truck_8054.png
9,15,multiple-slider,15,346854,t3penhne8p144yo,633dba58fdd310c8d2d6d7e5,7,13033.09999999404,,,,"[0,1]",,,,,,"{""mixingcoeff"":77,""confidence"":78}",mixed_0.9_Bird_9039_Dog_2056.png,rate_mixture,,Bird,Dog,0.9,9039.0,2056.0,Bird_9039_Dog_2056.png
10,16,multiple-slider,16,359084,t3penhne8p144yo,633dba58fdd310c8d2d6d7e5,7,12227.399999976158,,,,"[0,1]",,,,,,"{""mixingcoeff"":0,""confidence"":100}",mixed_0.75_Bird_1587_Deer_4220.png,rate_mixture,,Bird,Deer,0.75,1587.0,4220.0,Bird_1587_Deer_4220.png
11,17,multiple-slider,17,372791,t3penhne8p144yo,633dba58fdd310c8d2d6d7e5,7,13703.0,,,,"[0,1]",,,,,,"{""mixingcoeff"":83,""confidence"":100}",mixed_0.1_Automobile_7309_Frog_9762.png,rate_mixture,,Automobile,Frog,0.1,7309.0,9762.0,Automobile_7309_Frog_9762.png
12,18,multiple-slider,18,383722,t3penhne8p144yo,633dba58fdd310c8d2d6d7e5,7,10928.899999976158,,,,"[0,1]",,,,,,"{""mixingcoeff"":50,""confidence"":67}",mixed_0.5_Dog_7493_Ship_8688.png,rate_mixture,,Dog,Ship,0.5,7493.0,8688.0,Dog_7493_Ship_8688.png
13,19,multiple-slider,19,395856,t3penhne8p144yo,633dba58fdd310c8d2d6d7e5,7,12131.59999999404,,,,"[0,1]",,,,,,"{""mixingcoeff"":50,""confidence"":50}",mixed_0.75_Cat_6833_Frog_1032.png,rate_mixture,,Cat,Frog,0.75,6833.0,1032.0,Cat_6833_Frog_1032.png
14,20,multiple-slider,20,408691,t3penhne8p144yo,633dba58fdd310c8d2d6d7e5,7,12831.90000000596,,,,"[0,1]",,,,,,"{""mixingcoeff"":50,""confidence"":50}",mixed_0.75_Bird_4706_Ship_6961.png,rate_mixture,,Bird,Ship,0.75,4706.0,6961.0,Bird_4706_Ship_6961.png
15,21,multiple-slider,21,415413,t3penhne8p144yo,633dba58fdd310c8d2d6d7e5,7,6719.0,,,,"[0,1]",,,,,,"{""mixingcoeff"":50,""confidence"":50}",mixed_0.5_Airplane_5618_Dog_1276.png,rate_mixture,,Airplane,Dog,0.5,5618.0,1276.0,Airplane_5618_Dog_1276.png
16,22,multiple-slider,22,427506,t3penhne8p144yo,633dba58fdd310c8d2d6d7e5,7,12091.0,,,,"[0,1]",,,,,,"{""mixingcoeff"":0,""confidence"":100}",mixed_0.9_Automobile_5909_Horse_7963.png,rate_mixture,,Automobile,Horse,0.9,5909.0,7963.0,Automobile_5909_Horse_7963.png
17,23,multiple-slider,23,435992,t3penhne8p144yo,633dba58fdd310c8d2d6d7e5,7,8483.59999999404,,,,"[0,1]",,,,,,"{""mixingcoeff"":0,""confidence"":100}",mixed_0.5_Horse_1170_Truck_5291.png,rate_mixture,,Horse,Truck,0.5,1170.0,5291.0,Horse_1170_Truck_5291.png
18,24,multiple-slider,24,445067,t3penhne8p144yo,633dba58fdd310c8d2d6d7e5,7,9071.80000001192,,,,"[0,1]",,,,,,"{""mixingcoeff"":100,""confidence"":100}",mixed_0.25_Airplane_9565_Frog_7527.png,rate_mixture,,Airplane,Frog,0.25,9565.0,7527.0,Airplane_9565_Frog_7527.png
19,25,multiple-slider,25,468511,t3penhne8p144yo,633dba58fdd310c8d2d6d7e5,7,23441.20000001788,,,,"[0,1]",,,,,,"{""mixingcoeff"":0,""confidence"":100}",mixed_0.75_Dog_7263_Frog_5412.png,rate_mixture,,Dog,Frog,0.75,7263.0,5412.0,Dog_7263_Frog_5412.png
20,26,multiple-slider,26,483190,t3penhne8p144yo,633dba58fdd310c8d2d6d7e5,7,14677.0,,,,"[0,1]",,,,,,"{""mixingcoeff"":20,""confidence"":100}",mixed_0.5_Automobile_1020_Deer_3851.png,rate_mixture,,Automobile,Deer,0.5,1020.0,3851.0,Automobile_1020_Deer_3851.png
21,27,multiple-slider,27,495532,t3penhne8p144yo,633dba58fdd310c8d2d6d7e5,7,12339.5,,,,"[0,1]",,,,,,"{""mixingcoeff"":100,""confidence"":100}",mixed_0.25_Airplane_4340_Ship_6049.png,rate_mixture,,Airplane,Ship,0.25,4340.0,6049.0,Airplane_4340_Ship_6049.png
22,28,multiple-slider,28,510364,t3penhne8p144yo,633dba58fdd310c8d2d6d7e5,7,14828.69999998808,,,,"[0,1]",,,,,,"{""mixingcoeff"":100,""confidence"":100}",mixed_0.25_Airplane_4701_Horse_867.png,rate_mixture,,Airplane,Horse,0.25,4701.0,867.0,Airplane_4701_Horse_867.png
23,29,multiple-slider,29,530668,t3penhne8p144yo,633dba58fdd310c8d2d6d7e5,7,20301.40000000596,,,,"[0,1]",,,,,,"{""mixingcoeff"":0,""confidence"":80}",mixed_0.5_Automobile_6982_Horse_6807.png,rate_mixture,,Automobile,Horse,0.5,6982.0,6807.0,Automobile_6982_Horse_6807.png
24,30,multiple-slider,30,539501,t3penhne8p144yo,633dba58fdd310c8d2d6d7e5,7,8830.699999988079,,,,"[0,1]",,,,,,"{""mixingcoeff"":0,""confidence"":100}",mixed_0.9_Deer_3616_Horse_5693.png,rate_mixture,,Deer,Horse,0.9,3616.0,5693.0,Deer_3616_Horse_5693.png
25,31,multiple-slider,31,546172,t3penhne8p144yo,633dba58fdd310c8d2d6d7e5,7,6668.09999999404,,,,"[0,1]",,,,,,"{""mixingcoeff"":50,""confidence"":50}",mixed_0.1_Automobile_7236_Cat_5532.png,rate_mixture,,Automobile,Cat,0.1,7236.0,5532.0,Automobile_7236_Cat_5532.png
26,32,multiple-slider,32,556834,t3penhne8p144yo,633dba58fdd310c8d2d6d7e5,7,10659.59999999404,,,,"[0,1]",,,,,,"{""mixingcoeff"":17,""confidence"":100}",mixed_0.9_Bird_322_Truck_9517.png,rate_mixture,,Bird,Truck,0.9,322.0,9517.0,Bird_322_Truck_9517.png
27,33,multiple-slider,33,566080,t3penhne8p144yo,633dba58fdd310c8d2d6d7e5,7,9243.59999999404,,,,"[0,1]",,,,,,"{""mixingcoeff"":10,""confidence"":100}",mixed_0.5_Cat_256_Dog_9774.png,rate_mixture,,Cat,Dog,0.5,256.0,9774.0,Cat_256_Dog_9774.png
28,34,multiple-slider,34,577905,t3penhne8p144yo,633dba58fdd310c8d2d6d7e5,7,11821.70000001788,,,,"[0,1]",,,,,,"{""mixingcoeff"":12,""confidence"":100}",mixed_0.75_Cat_945_Horse_6318.png,rate_mixture,,Cat,Horse,0.75,945.0,6318.0,Cat_945_Horse_6318.png
29,35,multiple-slider,35,587165,t3penhne8p144yo,633dba58fdd310c8d2d6d7e5,7,9257.5,,,,"[0,1]",,,,,,"{""mixingcoeff"":100,""confidence"":100}",mixed_0.1_Cat_9142_Deer_7628.png,rate_mixture,,Cat,Deer,0.1,9142.0,7628.0,Cat_9142_Deer_7628.png
30,36,multiple-slider,36,617506,t3penhne8p144yo,633dba58fdd310c8d2d6d7e5,7,30340.20000001788,,,,"[0,1]",,,,,,"{""mixingcoeff"":0,""confidence"":100}",mixed_0.75_Airplane_4356_Horse_2791.png,rate_mixture,,Airplane,Horse,0.75,4356.0,2791.0,Airplane_4356_Horse_2791.png
31,37,multiple-slider,37,630987,t3penhne8p144yo,633dba58fdd310c8d2d6d7e5,7,13477.600000023842,,,,"[0,1]",,,,,,"{""mixingcoeff"":99,""confidence"":100}",mixed_0.5_Dog_7421_Horse_1899.png,rate_mixture,,Dog,Horse,0.5,7421.0,1899.0,Dog_7421_Horse_1899.png
32,38,multiple-slider,38,641648,t3penhne8p144yo,633dba58fdd310c8d2d6d7e5,7,10658.59999999404,,,,"[0,1]",,,,,,"{""mixingcoeff"":18,""confidence"":100}",mixed_0.9_Frog_3442_Truck_981.png,rate_mixture,,Frog,Truck,0.9,3442.0,981.0,Frog_3442_Truck_981.png
33,39,multiple-slider,39,652098,t3penhne8p144yo,633dba58fdd310c8d2d6d7e5,7,10448.0,,,,"[0,1]",,,,,,"{""mixingcoeff"":0,""confidence"":100}",mixed_0.9_Automobile_6159_Cat_9454.png,rate_mixture,,Automobile,Cat,0.9,6159.0,9454.0,Automobile_6159_Cat_9454.png
34,40,multiple-slider,40,660445,t3penhne8p144yo,633dba58fdd310c8d2d6d7e5,7,8344.0,,,,"[0,1]",,,,,,"{""mixingcoeff"":100,""confidence"":100}",mixed_0.1_Deer_3627_Dog_230.png,rate_mixture,,Deer,Dog,0.1,3627.0,230.0,Deer_3627_Dog_230.png
35,41,multiple-slider,41,672443,t3penhne8p144yo,633dba58fdd310c8d2d6d7e5,7,11995.20000001788,,,,"[0,1]",,,,,,"{""mixingcoeff"":100,""confidence"":100}",mixed_0.25_Cat_5630_Deer_4884.png,rate_mixture,,Cat,Deer,0.25,5630.0,4884.0,Cat_5630_Deer_4884.png
36,42,multiple-slider,42,687745,t3penhne8p144yo,633dba58fdd310c8d2d6d7e5,7,15299.0,,,,"[0,1]",,,,,,"{""mixingcoeff"":0,""confidence"":100}",mixed_0.9_Bird_837_Horse_9883.png,rate_mixture,,Bird,Horse,0.9,837.0,9883.0,Bird_837_Horse_9883.png
37,43,multiple-slider,43,697791,t3penhne8p144yo,633dba58fdd310c8d2d6d7e5,7,10042.5,,,,"[0,1]",,,,,,"{""mixingcoeff"":0,""confidence"":100}",mixed_0.9_Cat_9562_Truck_9927.png,rate_mixture,,Cat,Truck,0.9,9562.0,9927.0,Cat_9562_Truck_9927.png
38,44,multiple-slider,44,710944,t3penhne8p144yo,633dba58fdd310c8d2d6d7e5,7,13146.600000023842,,,,"[0,1]",,,,,,"{""mixingcoeff"":100,""confidence"":100}",mixed_0.5_Airplane_9973_Horse_9672.png,rate_mixture,,Airplane,Horse,0.5,9973.0,9672.0,Airplane_9973_Horse_9672.png
39,45,multiple-slider,45,718122,t3penhne8p144yo,633dba58fdd310c8d2d6d7e5,7,7175.0,,,,"[0,1]",,,,,,"{""mixingcoeff"":50,""confidence"":50}",mixed_0.25_Automobile_5323_Frog_5895.png,rate_mixture,,Automobile,Frog,0.25,5323.0,5895.0,Automobile_5323_Frog_5895.png
40,46,multiple-slider,46,746214,t3penhne8p144yo,633dba58fdd310c8d2d6d7e5,7,28089.09999999404,,,,"[0,1]",,,,,,"{""mixingcoeff"":79,""confidence"":100}",mixed_0.25_Airplane_8073_Ship_2578.png,rate_mixture,,Airplane,Ship,0.25,8073.0,2578.0,Airplane_8073_Ship_2578.png
41,47,multiple-slider,47,754987,t3penhne8p144yo,633dba58fdd310c8d2d6d7e5,7,8771.199999988079,,,,"[0,1]",,,,,,"{""mixingcoeff"":50,""confidence"":50}",mixed_0.75_Bird_1803_Horse_5320.png,rate_mixture,,Bird,Horse,0.75,1803.0,5320.0,Bird_1803_Horse_5320.png
42,48,multiple-slider,48,823330,t3penhne8p144yo,633dba58fdd310c8d2d6d7e5,7,68340.79999998212,,,,"[0,1]",,,,,,"{""mixingcoeff"":0,""confidence"":100}",mixed_0.75_Deer_7326_Truck_411.png,rate_mixture,,Deer,Truck,0.75,7326.0,411.0,Deer_7326_Truck_411.png
43,49,multiple-slider,49,830641,t3penhne8p144yo,633dba58fdd310c8d2d6d7e5,7,7308.199999988079,,,,"[0,1]",,,,,,"{""mixingcoeff"":99,""confidence"":100}",mixed_0.1_Deer_2134_Dog_7820.png,rate_mixture,,Deer,Dog,0.1,2134.0,7820.0,Deer_2134_Dog_7820.png
44,50,multiple-slider,50,836541,t3penhne8p144yo,633dba58fdd310c8d2d6d7e5,7,5897.59999999404,,,,"[0,1]",,,,,,"{""mixingcoeff"":50,""confidence"":50}",mixed_0.5_Cat_8386_Dog_729.png,rate_mixture,,Cat,Dog,0.5,8386.0,729.0,Cat_8386_Dog_729.png
45,51,multiple-slider,51,844962,t3penhne8p144yo,633dba58fdd310c8d2d6d7e5,7,8418.200000017881,,,,"[0,1]",,,,,,"{""mixingcoeff"":0,""confidence"":100}",mixed_0.9_Airplane_2215_Truck_349.png,rate_mixture,,Airplane,Truck,0.9,2215.0,349.0,Airplane_2215_Truck_349.png
46,52,multiple-slider,52,857760,t3penhne8p144yo,633dba58fdd310c8d2d6d7e5,7,12795.19999998808,,,,"[0,1]",,,,,,"{""mixingcoeff"":78,""confidence"":100}",mixed_0.5_Airplane_2110_Truck_6542.png,rate_mixture,,Airplane,Truck,0.5,2110.0,6542.0,Airplane_2110_Truck_6542.png
47,53,multiple-slider,53,873985,t3penhne8p144yo,633dba58fdd310c8d2d6d7e5,7,16223.20000001788,,,,"[0,1]",,,,,,"{""mixingcoeff"":100,""confidence"":100}",mixed_0.25_Airplane_1010_Deer_5786.png,rate_mixture,,Airplane,Deer,0.25,1010.0,5786.0,Airplane_1010_Deer_5786.png
48,54,multiple-slider,54,884748,t3penhne8p144yo,633dba58fdd310c8d2d6d7e5,7,10759.59999999404,,,,"[0,1]",,,,,,"{""mixingcoeff"":50,""confidence"":50}",mixed_0.75_Bird_3139_Frog_4073.png,rate_mixture,,Bird,Frog,0.75,3139.0,4073.0,Bird_3139_Frog_4073.png
49,55,multiple-slider,55,890878,t3penhne8p144yo,633dba58fdd310c8d2d6d7e5,7,6127.09999999404,,,,"[0,1]",,,,,,"{""mixingcoeff"":50,""confidence"":50}",mixed_0.5_Deer_9610_Ship_1713.png,rate_mixture,,Deer,Ship,0.5,9610.0,1713.0,Deer_9610_Ship_1713.png
50,56,multiple-slider,56,931289,t3penhne8p144yo,633dba58fdd310c8d2d6d7e5,7,40409.0,,,,"[0,1]",,,,,,"{""mixingcoeff"":100,""confidence"":100}",mixed_0.25_Bird_424_Ship_4145.png,rate_mixture,,Bird,Ship,0.25,424.0,4145.0,Bird_424_Ship_4145.png
51,57,multiple-slider,57,954777,t3penhne8p144yo,633dba58fdd310c8d2d6d7e5,7,23482.90000000596,,,,"[0,1]",,,,,,"{""mixingcoeff"":0,""confidence"":100}",mixed_0.75_Horse_3561_Truck_9026.png,rate_mixture,,Horse,Truck,0.75,3561.0,9026.0,Horse_3561_Truck_9026.png
52,58,multiple-slider,58,962846,t3penhne8p144yo,633dba58fdd310c8d2d6d7e5,7,8066.5,,,,"[0,1]",,,,,,"{""mixingcoeff"":0,""confidence"":100}",mixed_0.75_Automobile_6816_Horse_4825.png,rate_mixture,,Automobile,Horse,0.75,6816.0,4825.0,Automobile_6816_Horse_4825.png
53,59,multiple-slider,59,980362,t3penhne8p144yo,633dba58fdd310c8d2d6d7e5,7,17513.19999998808,,,,"[0,1]",,,,,,"{""mixingcoeff"":0,""confidence"":100}",mixed_0.75_Deer_9937_Truck_7491.png,rate_mixture,,Deer,Truck,0.75,9937.0,7491.0,Deer_9937_Truck_7491.png
54,60,multiple-slider,60,1032829,t3penhne8p144yo,633dba58fdd310c8d2d6d7e5,7,52463.40000000596,,,,"[0,1]",,,,,,"{""mixingcoeff"":50,""confidence"":50}",mixed_0.5_Deer_4834_Ship_1279.png,rate_mixture,,Deer,Ship,0.5,4834.0,1279.0,Deer_4834_Ship_1279.png
55,61,multiple-slider,61,1041974,t3penhne8p144yo,633dba58fdd310c8d2d6d7e5,7,9143.09999999404,,,,"[0,1]",,,,,,"{""mixingcoeff"":78,""confidence"":50}",mixed_0.1_Automobile_1301_Ship_8460.png,rate_mixture,,Automobile,Ship,0.1,1301.0,8460.0,Automobile_1301_Ship_8460.png
56,62,multiple-slider,62,1052312,t3penhne8p144yo,633dba58fdd310c8d2d6d7e5,7,10335.30000001192,,,,"[0,1]",,,,,,"{""mixingcoeff"":100,""confidence"":100}",mixed_0.1_Dog_3026_Horse_2340.png,rate_mixture,,Dog,Horse,0.1,3026.0,2340.0,Dog_3026_Horse_2340.png
57,63,multiple-slider,63,1061651,t3penhne8p144yo,633dba58fdd310c8d2d6d7e5,7,9336.0,,,,"[0,1]",,,,,,"{""mixingcoeff"":50,""confidence"":50}",mixed_0.5_Automobile_240_Bird_2066.png,rate_mixture,,Automobile,Bird,0.5,240.0,2066.0,Automobile_240_Bird_2066.png
58,64,multiple-slider,64,1072391,t3penhne8p144yo,633dba58fdd310c8d2d6d7e5,7,10737.80000001192,,,,"[0,1]",,,,,,"{""mixingcoeff"":0,""confidence"":100}",mixed_0.9_Automobile_6431_Dog_5467.png,rate_mixture,,Automobile,Dog,0.9,6431.0,5467.0,Automobile_6431_Dog_5467.png
59,65,multiple-slider,65,1084743,t3penhne8p144yo,633dba58fdd310c8d2d6d7e5,7,12349.0,,,,"[0,1]",,,,,,"{""mixingcoeff"":99,""confidence"":100}",mixed_0.1_Dog_3496_Frog_3793.png,rate_mixture,,Dog,Frog,0.1,3496.0,3793.0,Dog_3496_Frog_3793.png
60,66,multiple-slider,66,1106029,t3penhne8p144yo,633dba58fdd310c8d2d6d7e5,7,21286.40000000596,,,,"[0,1]",,,,,,"{""mixingcoeff"":50,""confidence"":50}",mixed_0.5_Airplane_5618_Dog_1276.png,rerun_rate_mixture,,Airplane,Dog,0.5,5618.0,1276.0,Airplane_5618_Dog_1276.png
61,67,multiple-slider,67,1114201,t3penhne8p144yo,633dba58fdd310c8d2d6d7e5,7,8169.90000000596,,,,"[0,1]",,,,,,"{""mixingcoeff"":79,""confidence"":50}",mixed_0.5_Automobile_1020_Deer_3851.png,rerun_rate_mixture,,Automobile,Deer,0.5,1020.0,3851.0,Automobile_1020_Deer_3851.png
62,81,multiple-slider,12,243508,ggu7hhh03qg1sqj,633dba58fdd310c8d2d6d7e5,4,14946.200000286102,,,,"[0,1]",,,,,,"{""mixingcoeff"":0,""confidence"":100}",mixed_0.9_Airplane_9271_Automobile_9455.png,rate_mixture,,Airplane,Automobile,0.9,9271.0,9455.0,Airplane_9271_Automobile_9455.png
63,82,multiple-slider,13,248366,ggu7hhh03qg1sqj,633dba58fdd310c8d2d6d7e5,4,4854.299999713898,,,,"[0,1]",,,,,,"{""mixingcoeff"":100,""confidence"":100}",mixed_0.1_Automobile_1549_Dog_3666.png,rate_mixture,,Automobile,Dog,0.1,1549.0,3666.0,Automobile_1549_Dog_3666.png
64,83,multiple-slider,14,257629,ggu7hhh03qg1sqj,633dba58fdd310c8d2d6d7e5,4,9260.200000286102,,,,"[0,1]",,,,,,"{""mixingcoeff"":100,""confidence"":100}",mixed_0.25_Cat_1625_Dog_2459.png,rate_mixture,,Cat,Dog,0.25,1625.0,2459.0,Cat_1625_Dog_2459.png
65,84,multiple-slider,15,264521,ggu7hhh03qg1sqj,633dba58fdd310c8d2d6d7e5,4,6887.799999713898,,,,"[0,1]",,,,,,"{""mixingcoeff"":50,""confidence"":50}",mixed_0.5_Automobile_4890_Dog_7168.png,rate_mixture,,Automobile,Dog,0.5,4890.0,7168.0,Automobile_4890_Dog_7168.png
66,85,multiple-slider,16,270227,ggu7hhh03qg1sqj,633dba58fdd310c8d2d6d7e5,4,5702.699999809265,,,,"[0,1]",,,,,,"{""mixingcoeff"":100,""confidence"":100}",mixed_0.1_Dog_8236_Frog_635.png,rate_mixture,,Dog,Frog,0.1,8236.0,635.0,Dog_8236_Frog_635.png
67,86,multiple-slider,17,281975,ggu7hhh03qg1sqj,633dba58fdd310c8d2d6d7e5,4,11744.799999713898,,,,"[0,1]",,,,,,"{""mixingcoeff"":12,""confidence"":20}",mixed_0.25_Frog_4669_Truck_1893.png,rate_mixture,,Frog,Truck,0.25,4669.0,1893.0,Frog_4669_Truck_1893.png
68,87,multiple-slider,18,286764,ggu7hhh03qg1sqj,633dba58fdd310c8d2d6d7e5,4,4785.5,,,,"[0,1]",,,,,,"{""mixingcoeff"":0,""confidence"":100}",mixed_0.5_Cat_9498_Dog_6014.png,rate_mixture,,Cat,Dog,0.5,9498.0,6014.0,Cat_9498_Dog_6014.png
69,88,multiple-slider,19,290643,ggu7hhh03qg1sqj,633dba58fdd310c8d2d6d7e5,4,3875.89999961853,,,,"[0,1]",,,,,,"{""mixingcoeff"":100,""confidence"":100}",mixed_0.25_Automobile_8712_Frog_6558.png,rate_mixture,,Automobile,Frog,0.25,8712.0,6558.0,Automobile_8712_Frog_6558.png
70,89,multiple-slider,20,296441,ggu7hhh03qg1sqj,633dba58fdd310c8d2d6d7e5,4,5795.0,,,,"[0,1]",,,,,,"{""mixingcoeff"":19,""confidence"":38}",mixed_0.25_Automobile_6159_Bird_3525.png,rate_mixture,,Automobile,Bird,0.25,6159.0,3525.0,Automobile_6159_Bird_3525.png
71,90,multiple-slider,21,300014,ggu7hhh03qg1sqj,633dba58fdd310c8d2d6d7e5,4,3569.7999997138977,,,,"[0,1]",,,,,,"{""mixingcoeff"":100,""confidence"":100}",mixed_0.1_Cat_5413_Frog_616.png,rate_mixture,,Cat,Frog,0.1,5413.0,616.0,Cat_5413_Frog_616.png
72,91,multiple-slider,22,306383,ggu7hhh03qg1sqj,633dba58fdd310c8d2d6d7e5,4,6366.700000286102,,,,"[0,1]",,,,,,"{""mixingcoeff"":27,""confidence"":42}",mixed_0.75_Deer_2809_Horse_4892.png,rate_mixture,,Deer,Horse,0.75,2809.0,4892.0,Deer_2809_Horse_4892.png
73,92,multiple-slider,23,310216,ggu7hhh03qg1sqj,633dba58fdd310c8d2d6d7e5,4,3830.0,,,,"[0,1]",,,,,,"{""mixingcoeff"":70,""confidence"":83}",mixed_0.5_Cat_3901_Ship_2284.png,rate_mixture,,Cat,Ship,0.5,3901.0,2284.0,Cat_3901_Ship_2284.png
74,93,multiple-slider,24,314702,ggu7hhh03qg1sqj,633dba58fdd310c8d2d6d7e5,4,4480.900000095367,,,,"[0,1]",,,,,,"{""mixingcoeff"":28,""confidence"":65}",mixed_0.5_Deer_9610_Ship_8921.png,rate_mixture,,Deer,Ship,0.5,9610.0,8921.0,Deer_9610_Ship_8921.png
75,94,multiple-slider,25,318070,ggu7hhh03qg1sqj,633dba58fdd310c8d2d6d7e5,4,3365.0,,,,"[0,1]",,,,,,"{""mixingcoeff"":40,""confidence"":66}",mixed_0.75_Airplane_3494_Horse_3786.png,rate_mixture,,Airplane,Horse,0.75,3494.0,3786.0,Airplane_3494_Horse_3786.png
76,95,multiple-slider,26,320835,ggu7hhh03qg1sqj,633dba58fdd310c8d2d6d7e5,4,2761.8999996185303,,,,"[0,1]",,,,,,"{""mixingcoeff"":38,""confidence"":66}",mixed_0.25_Cat_2261_Horse_4781.png,rate_mixture,,Cat,Horse,0.25,2261.0,4781.0,Cat_2261_Horse_4781.png
77,96,multiple-slider,27,324483,ggu7hhh03qg1sqj,633dba58fdd310c8d2d6d7e5,4,3645.5,,,,"[0,1]",,,,,,"{""mixingcoeff"":20,""confidence"":39}",mixed_0.25_Airplane_6437_Cat_8446.png,rate_mixture,,Airplane,Cat,0.25,6437.0,8446.0,Airplane_6437_Cat_8446.png
78,97,multiple-slider,28,327868,ggu7hhh03qg1sqj,633dba58fdd310c8d2d6d7e5,4,3380.9000000953674,,,,"[0,1]",,,,,,"{""mixingcoeff"":83,""confidence"":38}",mixed_0.9_Deer_4472_Frog_1513.png,rate_mixture,,Deer,Frog,0.9,4472.0,1513.0,Deer_4472_Frog_1513.png
79,98,multiple-slider,29,332973,ggu7hhh03qg1sqj,633dba58fdd310c8d2d6d7e5,4,5101.699999809265,,,,"[0,1]",,,,,,"{""mixingcoeff"":51,""confidence"":47}",mixed_0.9_Bird_5712_Ship_8644.png,rate_mixture,,Bird,Ship,0.9,5712.0,8644.0,Bird_5712_Ship_8644.png
80,99,multiple-slider,30,340049,ggu7hhh03qg1sqj,633dba58fdd310c8d2d6d7e5,4,7073.199999809265,,,,"[0,1]",,,,,,"{""mixingcoeff"":0,""confidence"":100}",mixed_0.9_Cat_6990_Dog_6609.png,rate_mixture,,Cat,Dog,0.9,6990.0,6609.0,Cat_6990_Dog_6609.png
81,100,multiple-slider,31,347661,ggu7hhh03qg1sqj,633dba58fdd310c8d2d6d7e5,4,7608.700000286102,,,,"[0,1]",,,,,,"{""mixingcoeff"":100,""confidence"":100}",mixed_0.1_Automobile_1458_Deer_165.png,rate_mixture,,Automobile,Deer,0.1,1458.0,165.0,Automobile_1458_Deer_165.png
82,101,multiple-slider,32,351774,ggu7hhh03qg1sqj,633dba58fdd310c8d2d6d7e5,4,4109.60000038147,,,,"[0,1]",,,,,,"{""mixingcoeff"":100,""confidence"":100}",mixed_0.25_Airplane_9031_Frog_1817.png,rate_mixture,,Airplane,Frog,0.25,9031.0,1817.0,Airplane_9031_Frog_1817.png
83,102,multiple-slider,33,361643,ggu7hhh03qg1sqj,633dba58fdd310c8d2d6d7e5,4,9865.699999809263,,,,"[0,1]",,,,,,"{""mixingcoeff"":22,""confidence"":40}",mixed_0.5_Airplane_2966_Truck_1834.png,rate_mixture,,Airplane,Truck,0.5,2966.0,1834.0,Airplane_2966_Truck_1834.png
84,103,multiple-slider,34,367874,ggu7hhh03qg1sqj,633dba58fdd310c8d2d6d7e5,4,6227.800000190735,,,,"[0,1]",,,,,,"{""mixingcoeff"":100,""confidence"":100}",mixed_0.1_Frog_2707_Ship_1556.png,rate_mixture,,Frog,Ship,0.1,2707.0,1556.0,Frog_2707_Ship_1556.png
85,104,multiple-slider,35,372121,ggu7hhh03qg1sqj,633dba58fdd310c8d2d6d7e5,4,4243.900000095367,,,,"[0,1]",,,,,,"{""mixingcoeff"":53,""confidence"":58}",mixed_0.1_Ship_4910_Truck_6804.png,rate_mixture,,Ship,Truck,0.1,4910.0,6804.0,Ship_4910_Truck_6804.png
86,105,multiple-slider,36,375199,ggu7hhh03qg1sqj,633dba58fdd310c8d2d6d7e5,4,3074.5,,,,"[0,1]",,,,,,"{""mixingcoeff"":43,""confidence"":76}",mixed_0.5_Cat_7827_Frog_1184.png,rate_mixture,,Cat,Frog,0.5,7827.0,1184.0,Cat_7827_Frog_1184.png
87,106,multiple-slider,37,379837,ggu7hhh03qg1sqj,633dba58fdd310c8d2d6d7e5,4,4635.700000286102,,,,"[0,1]",,,,,,"{""mixingcoeff"":78,""confidence"":43}",mixed_0.75_Airplane_3965_Deer_3378.png,rate_mixture,,Airplane,Deer,0.75,3965.0,3378.0,Airplane_3965_Deer_3378.png
88,107,multiple-slider,38,383083,ggu7hhh03qg1sqj,633dba58fdd310c8d2d6d7e5,4,3243.0,,,,"[0,1]",,,,,,"{""mixingcoeff"":32,""confidence"":61}",mixed_0.5_Automobile_9998_Ship_4223.png,rate_mixture,,Automobile,Ship,0.5,9998.0,4223.0,Automobile_9998_Ship_4223.png
89,108,multiple-slider,39,386601,ggu7hhh03qg1sqj,633dba58fdd310c8d2d6d7e5,4,3515.3999996185303,,,,"[0,1]",,,,,,"{""mixingcoeff"":75,""confidence"":50}",mixed_0.75_Ship_1349_Truck_4091.png,rate_mixture,,Ship,Truck,0.75,1349.0,4091.0,Ship_1349_Truck_4091.png
90,109,multiple-slider,40,389760,ggu7hhh03qg1sqj,633dba58fdd310c8d2d6d7e5,4,3155.599999904633,,,,"[0,1]",,,,,,"{""mixingcoeff"":46,""confidence"":62}",mixed_0.5_Frog_2802_Ship_9680.png,rate_mixture,,Frog,Ship,0.5,2802.0,9680.0,Frog_2802_Ship_9680.png
91,110,multiple-slider,41,393590,ggu7hhh03qg1sqj,633dba58fdd310c8d2d6d7e5,4,3827.0,,,,"[0,1]",,,,,,"{""mixingcoeff"":85,""confidence"":74}",mixed_0.9_Dog_3726_Truck_9143.png,rate_mixture,,Dog,Truck,0.9,3726.0,9143.0,Dog_3726_Truck_9143.png
92,111,multiple-slider,42,396661,ggu7hhh03qg1sqj,633dba58fdd310c8d2d6d7e5,4,3068.6000003814697,,,,"[0,1]",,,,,,"{""mixingcoeff"":91,""confidence"":64}",mixed_0.25_Automobile_3488_Horse_3879.png,rate_mixture,,Automobile,Horse,0.25,3488.0,3879.0,Automobile_3488_Horse_3879.png
93,112,multiple-slider,43,401364,ggu7hhh03qg1sqj,633dba58fdd310c8d2d6d7e5,4,4700.0,,,,"[0,1]",,,,,,"{""mixingcoeff"":0,""confidence"":100}",mixed_0.75_Deer_5742_Horse_8461.png,rate_mixture,,Deer,Horse,0.75,5742.0,8461.0,Deer_5742_Horse_8461.png
94,113,multiple-slider,44,405737,ggu7hhh03qg1sqj,633dba58fdd310c8d2d6d7e5,4,4369.800000190735,,,,"[0,1]",,,,,,"{""mixingcoeff"":48,""confidence"":65}",mixed_0.1_Automobile_4080_Dog_7608.png,rate_mixture,,Automobile,Dog,0.1,4080.0,7608.0,Automobile_4080_Dog_7608.png
95,114,multiple-slider,45,408704,ggu7hhh03qg1sqj,633dba58fdd310c8d2d6d7e5,4,2963.9000000953674,,,,"[0,1]",,,,,,"{""mixingcoeff"":33,""confidence"":61}",mixed_0.5_Bird_8967_Horse_1096.png,rate_mixture,,Bird,Horse,0.5,8967.0,1096.0,Bird_8967_Horse_1096.png
96,115,multiple-slider,46,411434,ggu7hhh03qg1sqj,633dba58fdd310c8d2d6d7e5,4,2727.7000002861023,,,,"[0,1]",,,,,,"{""mixingcoeff"":64,""confidence"":37}",mixed_0.1_Deer_1292_Dog_2012.png,rate_mixture,,Deer,Dog,0.1,1292.0,2012.0,Deer_1292_Dog_2012.png
97,116,multiple-slider,47,414117,ggu7hhh03qg1sqj,633dba58fdd310c8d2d6d7e5,4,2681.0,,,,"[0,1]",,,,,,"{""mixingcoeff"":33,""confidence"":65}",mixed_0.5_Airplane_2425_Bird_4108.png,rate_mixture,,Airplane,Bird,0.5,2425.0,4108.0,Airplane_2425_Bird_4108.png
98,117,multiple-slider,48,417541,ggu7hhh03qg1sqj,633dba58fdd310c8d2d6d7e5,4,3419.9000000953674,,,,"[0,1]",,,,,,"{""mixingcoeff"":41,""confidence"":64}",mixed_0.5_Airplane_7419_Bird_2625.png,rate_mixture,,Airplane,Bird,0.5,7419.0,2625.0,Airplane_7419_Bird_2625.png
99,118,multiple-slider,49,420487,ggu7hhh03qg1sqj,633dba58fdd310c8d2d6d7e5,4,2943.099999904633,,,,"[0,1]",,,,,,"{""mixingcoeff"":74,""confidence"":36}",mixed_0.1_Dog_9922_Ship_3586.png,rate_mixture,,Dog,Ship,0.1,9922.0,3586.0,Dog_9922_Ship_3586.png
100,119,multiple-slider,50,426270,ggu7hhh03qg1sqj,633dba58fdd310c8d2d6d7e5,4,5780.700000286102,,,,"[0,1]",,,,,,"{""mixingcoeff"":38,""confidence"":72}",mixed_0.1_Cat_3787_Deer_9104.png,rate_mixture,,Cat,Deer,0.1,3787.0,9104.0,Cat_3787_Deer_9104.png
101,120,multiple-slider,51,430118,ggu7hhh03qg1sqj,633dba58fdd310c8d2d6d7e5,4,3844.5,,,,"[0,1]",,,,,,"{""mixingcoeff"":39,""confidence"":71}",mixed_0.9_Cat_7509_Ship_9889.png,rate_mixture,,Cat,Ship,0.9,7509.0,9889.0,Cat_7509_Ship_9889.png
102,121,multiple-slider,52,433182,ggu7hhh03qg1sqj,633dba58fdd310c8d2d6d7e5,4,3061.0,,,,"[0,1]",,,,,,"{""mixingcoeff"":69,""confidence"":40}",mixed_0.5_Airplane_5260_Dog_768.png,rate_mixture,,Airplane,Dog,0.5,5260.0,768.0,Airplane_5260_Dog_768.png
103,122,multiple-slider,53,437146,ggu7hhh03qg1sqj,633dba58fdd310c8d2d6d7e5,4,3961.400000095368,,,,"[0,1]",,,,,,"{""mixingcoeff"":35,""confidence"":76}",mixed_0.25_Deer_8944_Truck_7444.png,rate_mixture,,Deer,Truck,0.25,8944.0,7444.0,Deer_8944_Truck_7444.png
104,123,multiple-slider,54,439742,ggu7hhh03qg1sqj,633dba58fdd310c8d2d6d7e5,4,2592.7000002861023,,,,"[0,1]",,,,,,"{""mixingcoeff"":36,""confidence"":60}",mixed_0.1_Bird_4009_Truck_1881.png,rate_mixture,,Bird,Truck,0.1,4009.0,1881.0,Bird_4009_Truck_1881.png
105,124,multiple-slider,55,448508,ggu7hhh03qg1sqj,633dba58fdd310c8d2d6d7e5,4,8762.700000286102,,,,"[0,1]",,,,,,"{""mixingcoeff"":65,""confidence"":44}",mixed_0.5_Deer_1145_Ship_8133.png,rate_mixture,,Deer,Ship,0.5,1145.0,8133.0,Deer_1145_Ship_8133.png
106,125,multiple-slider,56,456438,ggu7hhh03qg1sqj,633dba58fdd310c8d2d6d7e5,4,7927.599999904633,,,,"[0,1]",,,,,,"{""mixingcoeff"":50,""confidence"":71}",mixed_0.75_Ship_2579_Truck_3970.png,rate_mixture,,Ship,Truck,0.75,2579.0,3970.0,Ship_2579_Truck_3970.png
107,126,multiple-slider,57,462744,ggu7hhh03qg1sqj,633dba58fdd310c8d2d6d7e5,4,6302.700000286102,,,,"[0,1]",,,,,,"{""mixingcoeff"":0,""confidence"":76}",mixed_0.75_Frog_1184_Horse_3009.png,rate_mixture,,Frog,Horse,0.75,1184.0,3009.0,Frog_1184_Horse_3009.png
108,127,multiple-slider,58,468281,ggu7hhh03qg1sqj,633dba58fdd310c8d2d6d7e5,4,5533.900000095367,,,,"[0,1]",,,,,,"{""mixingcoeff"":63,""confidence"":45}",mixed_0.1_Automobile_4611_Deer_5417.png,rate_mixture,,Automobile,Deer,0.1,4611.0,5417.0,Automobile_4611_Deer_5417.png
109,128,multiple-slider,59,472796,ggu7hhh03qg1sqj,633dba58fdd310c8d2d6d7e5,4,4511.89999961853,,,,"[0,1]",,,,,,"{""mixingcoeff"":82,""confidence"":67}",mixed_0.1_Cat_1056_Dog_8300.png,rate_mixture,,Cat,Dog,0.1,1056.0,8300.0,Cat_1056_Dog_8300.png
110,129,multiple-slider,60,475902,ggu7hhh03qg1sqj,633dba58fdd310c8d2d6d7e5,4,3102.9000000953674,,,,"[0,1]",,,,,,"{""mixingcoeff"":40,""confidence"":65}",mixed_0.1_Ship_8732_Truck_4508.png,rate_mixture,,Ship,Truck,0.1,8732.0,4508.0,Ship_8732_Truck_4508.png
111,130,multiple-slider,61,479222,ggu7hhh03qg1sqj,633dba58fdd310c8d2d6d7e5,4,3317.099999904633,,,,"[0,1]",,,,,,"{""mixingcoeff"":100,""confidence"":60}",mixed_0.1_Bird_7068_Deer_8886.png,rate_mixture,,Bird,Deer,0.1,7068.0,8886.0,Bird_7068_Deer_8886.png
112,131,multiple-slider,62,482301,ggu7hhh03qg1sqj,633dba58fdd310c8d2d6d7e5,4,3076.4000000953674,,,,"[0,1]",,,,,,"{""mixingcoeff"":39,""confidence"":66}",mixed_0.75_Deer_5184_Ship_3625.png,rate_mixture,,Deer,Ship,0.75,5184.0,3625.0,Deer_5184_Ship_3625.png
113,132,multiple-slider,63,487944,ggu7hhh03qg1sqj,633dba58fdd310c8d2d6d7e5,4,5639.800000190735,,,,"[0,1]",,,,,,"{""mixingcoeff"":100,""confidence"":100}",mixed_0.25_Airplane_2400_Truck_7982.png,rate_mixture,,Airplane,Truck,0.25,2400.0,7982.0,Airplane_2400_Truck_7982.png
114,133,multiple-slider,64,491797,ggu7hhh03qg1sqj,633dba58fdd310c8d2d6d7e5,4,3849.599999904633,,,,"[0,1]",,,,,,"{""mixingcoeff"":70,""confidence"":57}",mixed_0.1_Deer_1443_Frog_9136.png,rate_mixture,,Deer,Frog,0.1,1443.0,9136.0,Deer_1443_Frog_9136.png
115,134,multiple-slider,65,498092,ggu7hhh03qg1sqj,633dba58fdd310c8d2d6d7e5,4,6292.200000286102,,,,"[0,1]",,,,,,"{""mixingcoeff"":100,""confidence"":100}",mixed_0.25_Cat_5306_Deer_8198.png,rate_mixture,,Cat,Deer,0.25,5306.0,8198.0,Cat_5306_Deer_8198.png
116,135,multiple-slider,66,501758,ggu7hhh03qg1sqj,633dba58fdd310c8d2d6d7e5,4,3661.699999809265,,,,"[0,1]",,,,,,"{""mixingcoeff"":77,""confidence"":80}",mixed_0.5_Dog_6043_Ship_6961.png,rate_mixture,,Dog,Ship,0.5,6043.0,6961.0,Dog_6043_Ship_6961.png
117,136,multiple-slider,67,506149,ggu7hhh03qg1sqj,633dba58fdd310c8d2d6d7e5,4,4388.5,,,,"[0,1]",,,,,,"{""mixingcoeff"":0,""confidence"":100}",mixed_0.75_Automobile_7017_Dog_5615.png,rate_mixture,,Automobile,Dog,0.75,7017.0,5615.0,Automobile_7017_Dog_5615.png
118,137,multiple-slider,68,511654,ggu7hhh03qg1sqj,633dba58fdd310c8d2d6d7e5,4,5502.0,,,,"[0,1]",,,,,,"{""mixingcoeff"":100,""confidence"":100}",mixed_0.1_Deer_4488_Dog_5115.png,rate_mixture,,Deer,Dog,0.1,4488.0,5115.0,Deer_4488_Dog_5115.png
119,138,multiple-slider,69,520888,ggu7hhh03qg1sqj,633dba58fdd310c8d2d6d7e5,4,9230.099999904633,,,,"[0,1]",,,,,,"{""mixingcoeff"":75,""confidence"":74}",mixed_0.1_Cat_6726_Truck_1287.png,rate_mixture,,Cat,Truck,0.1,6726.0,1287.0,Cat_6726_Truck_1287.png
120,139,multiple-slider,70,543386,ggu7hhh03qg1sqj,633dba58fdd310c8d2d6d7e5,4,22493.5,,,,"[0,1]",,,,,,"{""mixingcoeff"":91,""confidence"":94}",mixed_0.5_Dog_9160_Truck_4979.png,rate_mixture,,Dog,Truck,0.5,9160.0,4979.0,Dog_9160_Truck_4979.png
121,140,multiple-slider,71,546855,ggu7hhh03qg1sqj,633dba58fdd310c8d2d6d7e5,4,3465.2999997138977,,,,"[0,1]",,,,,,"{""mixingcoeff"":90,""confidence"":70}",mixed_0.5_Bird_1963_Ship_2245.png,rate_mixture,,Bird,Ship,0.5,1963.0,2245.0,Bird_1963_Ship_2245.png
122,141,multiple-slider,72,552532,ggu7hhh03qg1sqj,633dba58fdd310c8d2d6d7e5,4,5674.599999904633,,,,"[0,1]",,,,,,"{""mixingcoeff"":94,""confidence"":98}",mixed_0.25_Airplane_6437_Cat_8446.png,rerun_rate_mixture,,Airplane,Cat,0.25,6437.0,8446.0,Airplane_6437_Cat_8446.png
123,142,multiple-slider,73,556476,ggu7hhh03qg1sqj,633dba58fdd310c8d2d6d7e5,4,3940.0,,,,"[0,1]",,,,,,"{""mixingcoeff"":77,""confidence"":100}",mixed_0.25_Airplane_9031_Frog_1817.png,rerun_rate_mixture,,Airplane,Frog,0.25,9031.0,1817.0,Airplane_9031_Frog_1817.png
124,150,multiple-slider,6,168376,gg1rv501u9gdlln,633dba58fdd310c8d2d6d7e5,5,16498.899999976158,,,,"[0,1]",,,,,,"{""mixingcoeff"":6,""confidence"":90}",mixed_0.5_Frog_1017_Ship_1488.png,rate_mixture,,Frog,Ship,0.5,1017.0,1488.0,Frog_1017_Ship_1488.png
125,151,multiple-slider,7,183317,gg1rv501u9gdlln,633dba58fdd310c8d2d6d7e5,5,14934.300000071526,,,,"[0,1]",,,,,,"{""mixingcoeff"":100,""confidence"":100}",mixed_0.1_Airplane_7154_Ship_4006.png,rate_mixture,,Airplane,Ship,0.1,7154.0,4006.0,Airplane_7154_Ship_4006.png
126,152,multiple-slider,8,206110,gg1rv501u9gdlln,633dba58fdd310c8d2d6d7e5,5,22783.599999904636,,,,"[0,1]",,,,,,"{""mixingcoeff"":100,""confidence"":100}",mixed_0.25_Frog_3530_Ship_344.png,rate_mixture,,Frog,Ship,0.25,3530.0,344.0,Frog_3530_Ship_344.png
127,153,multiple-slider,9,219415,gg1rv501u9gdlln,633dba58fdd310c8d2d6d7e5,5,13298.5,,,,"[0,1]",,,,,,"{""mixingcoeff"":0,""confidence"":86}",mixed_0.75_Airplane_3112_Automobile_8248.png,rate_mixture,,Airplane,Automobile,0.75,3112.0,8248.0,Airplane_3112_Automobile_8248.png
128,154,multiple-slider,10,231208,gg1rv501u9gdlln,633dba58fdd310c8d2d6d7e5,5,11788.300000071526,,,,"[0,1]",,,,,,"{""mixingcoeff"":100,""confidence"":81}",mixed_0.5_Cat_7549_Dog_3719.png,rate_mixture,,Cat,Dog,0.5,7549.0,3719.0,Cat_7549_Dog_3719.png
129,155,multiple-slider,11,241296,gg1rv501u9gdlln,633dba58fdd310c8d2d6d7e5,5,10083.5,,,,"[0,1]",,,,,,"{""mixingcoeff"":100,""confidence"":90}",mixed_0.25_Cat_2401_Deer_5150.png,rate_mixture,,Cat,Deer,0.25,2401.0,5150.0,Cat_2401_Deer_5150.png
130,156,multiple-slider,12,251268,gg1rv501u9gdlln,633dba58fdd310c8d2d6d7e5,5,9966.5,,,,"[0,1]",,,,,,"{""mixingcoeff"":0,""confidence"":99}",mixed_0.9_Bird_2883_Dog_3355.png,rate_mixture,,Bird,Dog,0.9,2883.0,3355.0,Bird_2883_Dog_3355.png
131,157,multiple-slider,13,263380,gg1rv501u9gdlln,633dba58fdd310c8d2d6d7e5,5,12102.299999952316,,,,"[0,1]",,,,,,"{""mixingcoeff"":100,""confidence"":97}",mixed_0.1_Dog_2036_Frog_5523.png,rate_mixture,,Dog,Frog,0.1,2036.0,5523.0,Dog_2036_Frog_5523.png
132,158,multiple-slider,14,276759,gg1rv501u9gdlln,633dba58fdd310c8d2d6d7e5,5,13369.399999976158,,,,"[0,1]",,,,,,"{""mixingcoeff"":100,""confidence"":100}",mixed_0.1_Dog_4323_Horse_4878.png,rate_mixture,,Dog,Horse,0.1,4323.0,4878.0,Dog_4323_Horse_4878.png
133,159,multiple-slider,15,288067,gg1rv501u9gdlln,633dba58fdd310c8d2d6d7e5,5,11297.800000071526,,,,"[0,1]",,,,,,"{""mixingcoeff"":100,""confidence"":97}",mixed_0.1_Bird_4565_Ship_4347.png,rate_mixture,,Bird,Ship,0.1,4565.0,4347.0,Bird_4565_Ship_4347.png
134,160,multiple-slider,16,299183,gg1rv501u9gdlln,633dba58fdd310c8d2d6d7e5,5,11107.299999952316,,,,"[0,1]",,,,,,"{""mixingcoeff"":0,""confidence"":100}",mixed_0.75_Bird_6626_Truck_9875.png,rate_mixture,,Bird,Truck,0.75,6626.0,9875.0,Bird_6626_Truck_9875.png
135,161,multiple-slider,17,310223,gg1rv501u9gdlln,633dba58fdd310c8d2d6d7e5,5,11030.899999976158,,,,"[0,1]",,,,,,"{""mixingcoeff"":100,""confidence"":91}",mixed_0.25_Frog_8113_Horse_3110.png,rate_mixture,,Frog,Horse,0.25,8113.0,3110.0,Frog_8113_Horse_3110.png
136,162,multiple-slider,18,318296,gg1rv501u9gdlln,633dba58fdd310c8d2d6d7e5,5,8063.5,,,,"[0,1]",,,,,,"{""mixingcoeff"":0,""confidence"":100}",mixed_0.75_Automobile_3389_Cat_7596.png,rate_mixture,,Automobile,Cat,0.75,3389.0,7596.0,Automobile_3389_Cat_7596.png
137,163,multiple-slider,19,326121,gg1rv501u9gdlln,633dba58fdd310c8d2d6d7e5,5,7816.899999976158,,,,"[0,1]",,,,,,"{""mixingcoeff"":0,""confidence"":100}",mixed_0.75_Bird_748_Frog_1140.png,rate_mixture,,Bird,Frog,0.75,748.0,1140.0,Bird_748_Frog_1140.png
138,164,multiple-slider,20,335232,gg1rv501u9gdlln,633dba58fdd310c8d2d6d7e5,5,9106.100000023842,,,,"[0,1]",,,,,,"{""mixingcoeff"":100,""confidence"":98}",mixed_0.1_Frog_632_Horse_8042.png,rate_mixture,,Frog,Horse,0.1,632.0,8042.0,Frog_632_Horse_8042.png
139,165,multiple-slider,21,343004,gg1rv501u9gdlln,633dba58fdd310c8d2d6d7e5,5,7767.599999904633,,,,"[0,1]",,,,,,"{""mixingcoeff"":0,""confidence"":100}",mixed_0.75_Airplane_1973_Ship_2687.png,rate_mixture,,Airplane,Ship,0.75,1973.0,2687.0,Airplane_1973_Ship_2687.png
140,166,multiple-slider,22,351137,gg1rv501u9gdlln,633dba58fdd310c8d2d6d7e5,5,8128.800000071526,,,,"[0,1]",,,,,,"{""mixingcoeff"":100,""confidence"":100}",mixed_0.25_Airplane_4453_Dog_1120.png,rate_mixture,,Airplane,Dog,0.25,4453.0,1120.0,Airplane_4453_Dog_1120.png
141,167,multiple-slider,23,368301,gg1rv501u9gdlln,633dba58fdd310c8d2d6d7e5,5,17153.700000047684,,,,"[0,1]",,,,,,"{""mixingcoeff"":0,""confidence"":100}",mixed_0.5_Bird_7312_Ship_2721.png,rate_mixture,,Bird,Ship,0.5,7312.0,2721.0,Bird_7312_Ship_2721.png
142,168,multiple-slider,24,382689,gg1rv501u9gdlln,633dba58fdd310c8d2d6d7e5,5,14377.799999952316,,,,"[0,1]",,,,,,"{""mixingcoeff"":0,""confidence"":86}",mixed_0.9_Bird_3637_Dog_7545.png,rate_mixture,,Bird,Dog,0.9,3637.0,7545.0,Bird_3637_Dog_7545.png
143,169,multiple-slider,25,390558,gg1rv501u9gdlln,633dba58fdd310c8d2d6d7e5,5,7857.700000047684,,,,"[0,1]",,,,,,"{""mixingcoeff"":100,""confidence"":100}",mixed_0.25_Cat_6825_Ship_5619.png,rate_mixture,,Cat,Ship,0.25,6825.0,5619.0,Cat_6825_Ship_5619.png
144,170,multiple-slider,26,407205,gg1rv501u9gdlln,633dba58fdd310c8d2d6d7e5,5,16637.899999976158,,,,"[0,1]",,,,,,"{""mixingcoeff"":100,""confidence"":100}",mixed_0.25_Automobile_6685_Frog_6413.png,rate_mixture,,Automobile,Frog,0.25,6685.0,6413.0,Automobile_6685_Frog_6413.png
145,171,multiple-slider,27,452785,gg1rv501u9gdlln,633dba58fdd310c8d2d6d7e5,5,45569.29999995232,,,,"[0,1]",,,,,,"{""mixingcoeff"":100,""confidence"":100}",mixed_0.25_Airplane_7594_Horse_9372.png,rate_mixture,,Airplane,Horse,0.25,7594.0,9372.0,Airplane_7594_Horse_9372.png
146,172,multiple-slider,28,462800,gg1rv501u9gdlln,633dba58fdd310c8d2d6d7e5,5,10005.399999976158,,,,"[0,1]",,,,,,"{""mixingcoeff"":0,""confidence"":100}",mixed_0.9_Bird_6568_Frog_8038.png,rate_mixture,,Bird,Frog,0.9,6568.0,8038.0,Bird_6568_Frog_8038.png
147,173,multiple-slider,29,476632,gg1rv501u9gdlln,633dba58fdd310c8d2d6d7e5,5,13827.700000047684,,,,"[0,1]",,,,,,"{""mixingcoeff"":100,""confidence"":100}",mixed_0.1_Bird_7107_Cat_2133.png,rate_mixture,,Bird,Cat,0.1,7107.0,2133.0,Bird_7107_Cat_2133.png
148,174,multiple-slider,30,546096,gg1rv501u9gdlln,633dba58fdd310c8d2d6d7e5,5,69459.69999992847,,,,"[0,1]",,,,,,"{""mixingcoeff"":100,""confidence"":100}",mixed_0.25_Deer_7109_Dog_9257.png,rate_mixture,,Deer,Dog,0.25,7109.0,9257.0,Deer_7109_Dog_9257.png
149,175,multiple-slider,31,554477,gg1rv501u9gdlln,633dba58fdd310c8d2d6d7e5,5,8375.899999976158,,,,"[0,1]",,,,,,"{""mixingcoeff"":0,""confidence"":100}",mixed_0.75_Airplane_9172_Truck_1424.png,rate_mixture,,Airplane,Truck,0.75,9172.0,1424.0,Airplane_9172_Truck_1424.png
150,176,multiple-slider,32,563445,gg1rv501u9gdlln,633dba58fdd310c8d2d6d7e5,5,8958.899999976158,,,,"[0,1]",,,,,,"{""mixingcoeff"":0,""confidence"":100}",mixed_0.75_Deer_7132_Frog_8573.png,rate_mixture,,Deer,Frog,0.75,7132.0,8573.0,Deer_7132_Frog_8573.png
151,177,multiple-slider,33,573400,gg1rv501u9gdlln,633dba58fdd310c8d2d6d7e5,5,9944.0,,,,"[0,1]",,,,,,"{""mixingcoeff"":0,""confidence"":100}",mixed_0.75_Automobile_3611_Ship_8152.png,rate_mixture,,Automobile,Ship,0.75,3611.0,8152.0,Automobile_3611_Ship_8152.png
152,178,multiple-slider,34,593041,gg1rv501u9gdlln,633dba58fdd310c8d2d6d7e5,5,19630.89999997616,,,,"[0,1]",,,,,,"{""mixingcoeff"":99,""confidence"":100}",mixed_0.1_Bird_3907_Cat_4107.png,rate_mixture,,Bird,Cat,0.1,3907.0,4107.0,Bird_3907_Cat_4107.png
153,179,multiple-slider,35,604985,gg1rv501u9gdlln,633dba58fdd310c8d2d6d7e5,5,11936.899999976158,,,,"[0,1]",,,,,,"{""mixingcoeff"":0,""confidence"":100}",mixed_0.5_Cat_2444_Ship_939.png,rate_mixture,,Cat,Ship,0.5,2444.0,939.0,Cat_2444_Ship_939.png
154,180,multiple-slider,36,616920,gg1rv501u9gdlln,633dba58fdd310c8d2d6d7e5,5,11930.200000047684,,,,"[0,1]",,,,,,"{""mixingcoeff"":100,""confidence"":100}",mixed_0.25_Automobile_8139_Truck_7122.png,rate_mixture,,Automobile,Truck,0.25,8139.0,7122.0,Automobile_8139_Truck_7122.png
155,181,multiple-slider,37,624985,gg1rv501u9gdlln,633dba58fdd310c8d2d6d7e5,5,8057.200000047684,,,,"[0,1]",,,,,,"{""mixingcoeff"":100,""confidence"":100}",mixed_0.1_Bird_6679_Dog_3959.png,rate_mixture,,Bird,Dog,0.1,6679.0,3959.0,Bird_6679_Dog_3959.png
156,182,multiple-slider,38,636784,gg1rv501u9gdlln,633dba58fdd310c8d2d6d7e5,5,11794.799999952316,,,,"[0,1]",,,,,,"{""mixingcoeff"":100,""confidence"":100}",mixed_0.1_Airplane_3740_Deer_3439.png,rate_mixture,,Airplane,Deer,0.1,3740.0,3439.0,Airplane_3740_Deer_3439.png
157,183,multiple-slider,39,644398,gg1rv501u9gdlln,633dba58fdd310c8d2d6d7e5,5,7607.799999952316,,,,"[0,1]",,,,,,"{""mixingcoeff"":100,""confidence"":100}",mixed_0.1_Automobile_6399_Truck_5166.png,rate_mixture,,Automobile,Truck,0.1,6399.0,5166.0,Automobile_6399_Truck_5166.png
158,184,multiple-slider,40,652266,gg1rv501u9gdlln,633dba58fdd310c8d2d6d7e5,5,7862.0,,,,"[0,1]",,,,,,"{""mixingcoeff"":100,""confidence"":100}",mixed_0.25_Airplane_3148_Deer_5150.png,rate_mixture,,Airplane,Deer,0.25,3148.0,5150.0,Airplane_3148_Deer_5150.png
159,185,multiple-slider,41,668783,gg1rv501u9gdlln,633dba58fdd310c8d2d6d7e5,5,16508.600000023842,,,,"[0,1]",,,,,,"{""mixingcoeff"":0,""confidence"":33}",mixed_0.75_Bird_5910_Horse_8722.png,rate_mixture,,Bird,Horse,0.75,5910.0,8722.0,Bird_5910_Horse_8722.png
160,186,multiple-slider,42,676182,gg1rv501u9gdlln,633dba58fdd310c8d2d6d7e5,5,7394.399999976158,,,,"[0,1]",,,,,,"{""mixingcoeff"":100,""confidence"":100}",mixed_0.1_Bird_2610_Frog_4700.png,rate_mixture,,Bird,Frog,0.1,2610.0,4700.0,Bird_2610_Frog_4700.png
161,187,multiple-slider,43,691602,gg1rv501u9gdlln,633dba58fdd310c8d2d6d7e5,5,15411.100000023842,,,,"[0,1]",,,,,,"{""mixingcoeff"":0,""confidence"":73}",mixed_0.5_Airplane_315_Truck_3789.png,rate_mixture,,Airplane,Truck,0.5,315.0,3789.0,Airplane_315_Truck_3789.png
162,188,multiple-slider,44,699748,gg1rv501u9gdlln,633dba58fdd310c8d2d6d7e5,5,8138.200000047684,,,,"[0,1]",,,,,,"{""mixingcoeff"":0,""confidence"":100}",mixed_0.75_Automobile_5378_Truck_4468.png,rate_mixture,,Automobile,Truck,0.75,5378.0,4468.0,Automobile_5378_Truck_4468.png
163,189,multiple-slider,45,712851,gg1rv501u9gdlln,633dba58fdd310c8d2d6d7e5,5,13098.899999976158,,,,"[0,1]",,,,,,"{""mixingcoeff"":0,""confidence"":100}",mixed_0.9_Bird_843_Ship_721.png,rate_mixture,,Bird,Ship,0.9,843.0,721.0,Bird_843_Ship_721.png
164,190,multiple-slider,46,720553,gg1rv501u9gdlln,633dba58fdd310c8d2d6d7e5,5,7696.199999928474,,,,"[0,1]",,,,,,"{""mixingcoeff"":100,""confidence"":100}",mixed_0.1_Airplane_2249_Automobile_6972.png,rate_mixture,,Airplane,Automobile,0.1,2249.0,6972.0,Airplane_2249_Automobile_6972.png
165,191,multiple-slider,47,730046,gg1rv501u9gdlln,633dba58fdd310c8d2d6d7e5,5,9484.5,,,,"[0,1]",,,,,,"{""mixingcoeff"":0,""confidence"":100}",mixed_0.5_Airplane_4840_Ship_4316.png,rate_mixture,,Airplane,Ship,0.5,4840.0,4316.0,Airplane_4840_Ship_4316.png
166,192,multiple-slider,48,742383,gg1rv501u9gdlln,633dba58fdd310c8d2d6d7e5,5,12327.299999952316,,,,"[0,1]",,,,,,"{""mixingcoeff"":0,""confidence"":100}",mixed_0.75_Bird_843_Truck_4761.png,rate_mixture,,Bird,Truck,0.75,843.0,4761.0,Bird_843_Truck_4761.png
167,193,multiple-slider,49,752469,gg1rv501u9gdlln,633dba58fdd310c8d2d6d7e5,5,10077.600000023842,,,,"[0,1]",,,,,,"{""mixingcoeff"":0,""confidence"":100}",mixed_0.5_Dog_9976_Truck_3690.png,rate_mixture,,Dog,Truck,0.5,9976.0,3690.0,Dog_9976_Truck_3690.png
168,194,multiple-slider,50,767410,gg1rv501u9gdlln,633dba58fdd310c8d2d6d7e5,5,14930.799999952316,,,,"[0,1]",,,,,,"{""mixingcoeff"":100,""confidence"":100}",mixed_0.1_Frog_8932_Ship_1279.png,rate_mixture,,Frog,Ship,0.1,8932.0,1279.0,Frog_8932_Ship_1279.png
169,195,multiple-slider,51,774577,gg1rv501u9gdlln,633dba58fdd310c8d2d6d7e5,5,7157.899999976158,,,,"[0,1]",,,,,,"{""mixingcoeff"":100,""confidence"":100}",mixed_0.1_Dog_5115_Truck_680.png,rate_mixture,,Dog,Truck,0.1,5115.0,680.0,Dog_5115_Truck_680.png
170,196,multiple-slider,52,782769,gg1rv501u9gdlln,633dba58fdd310c8d2d6d7e5,5,8187.300000071526,,,,"[0,1]",,,,,,"{""mixingcoeff"":1,""confidence"":100}",mixed_0.75_Horse_3096_Ship_3869.png,rate_mixture,,Horse,Ship,0.75,3096.0,3869.0,Horse_3096_Ship_3869.png
171,197,multiple-slider,53,790714,gg1rv501u9gdlln,633dba58fdd310c8d2d6d7e5,5,7940.5,,,,"[0,1]",,,,,,"{""mixingcoeff"":100,""confidence"":100}",mixed_0.1_Automobile_6830_Frog_2445.png,rate_mixture,,Automobile,Frog,0.1,6830.0,2445.0,Automobile_6830_Frog_2445.png
172,198,multiple-slider,54,799921,gg1rv501u9gdlln,633dba58fdd310c8d2d6d7e5,5,9199.100000023842,,,,"[0,1]",,,,,,"{""mixingcoeff"":100,""confidence"":100}",mixed_0.25_Automobile_7953_Deer_6888.png,rate_mixture,,Automobile,Deer,0.25,7953.0,6888.0,Automobile_7953_Deer_6888.png
173,199,multiple-slider,55,810101,gg1rv501u9gdlln,633dba58fdd310c8d2d6d7e5,5,10173.200000047684,,,,"[0,1]",,,,,,"{""mixingcoeff"":0,""confidence"":100}",mixed_0.75_Automobile_7260_Frog_2572.png,rate_mixture,,Automobile,Frog,0.75,7260.0,2572.0,Automobile_7260_Frog_2572.png
174,200,multiple-slider,56,820010,gg1rv501u9gdlln,633dba58fdd310c8d2d6d7e5,5,9899.900000095367,,,,"[0,1]",,,,,,"{""mixingcoeff"":0,""confidence"":100}",mixed_0.75_Dog_7027_Ship_6484.png,rate_mixture,,Dog,Ship,0.75,7027.0,6484.0,Dog_7027_Ship_6484.png
175,201,multiple-slider,57,828671,gg1rv501u9gdlln,633dba58fdd310c8d2d6d7e5,5,8656.0,,,,"[0,1]",,,,,,"{""mixingcoeff"":0,""confidence"":100}",mixed_0.9_Bird_9137_Cat_9109.png,rate_mixture,,Bird,Cat,0.9,9137.0,9109.0,Bird_9137_Cat_9109.png
176,202,multiple-slider,58,841613,gg1rv501u9gdlln,633dba58fdd310c8d2d6d7e5,5,12935.5,,,,"[0,1]",,,,,,"{""mixingcoeff"":100,""confidence"":97}",mixed_0.1_Dog_3669_Frog_5487.png,rate_mixture,,Dog,Frog,0.1,3669.0,5487.0,Dog_3669_Frog_5487.png
177,203,multiple-slider,59,851979,gg1rv501u9gdlln,633dba58fdd310c8d2d6d7e5,5,10356.600000023842,,,,"[0,1]",,,,,,"{""mixingcoeff"":0,""confidence"":100}",mixed_0.75_Bird_448_Horse_4967.png,rate_mixture,,Bird,Horse,0.75,448.0,4967.0,Bird_448_Horse_4967.png
178,204,multiple-slider,60,866444,gg1rv501u9gdlln,633dba58fdd310c8d2d6d7e5,5,14456.299999952316,,,,"[0,1]",,,,,,"{""mixingcoeff"":0,""confidence"":100}",mixed_0.75_Automobile_1444_Truck_2020.png,rate_mixture,,Automobile,Truck,0.75,1444.0,2020.0,Automobile_1444_Truck_2020.png
179,205,multiple-slider,61,878758,gg1rv501u9gdlln,633dba58fdd310c8d2d6d7e5,5,12305.100000023842,,,,"[0,1]",,,,,,"{""mixingcoeff"":0,""confidence"":100}",mixed_0.5_Horse_4381_Truck_8218.png,rate_mixture,,Horse,Truck,0.5,4381.0,8218.0,Horse_4381_Truck_8218.png
180,206,multiple-slider,62,887216,gg1rv501u9gdlln,633dba58fdd310c8d2d6d7e5,5,8449.800000071526,,,,"[0,1]",,,,,,"{""mixingcoeff"":100,""confidence"":100}",mixed_0.25_Deer_8669_Frog_6911.png,rate_mixture,,Deer,Frog,0.25,8669.0,6911.0,Deer_8669_Frog_6911.png
181,207,multiple-slider,63,897452,gg1rv501u9gdlln,633dba58fdd310c8d2d6d7e5,5,10223.899999976158,,,,"[0,1]",,,,,,"{""mixingcoeff"":0,""confidence"":100}",mixed_0.9_Automobile_3392_Ship_2421.png,rate_mixture,,Automobile,Ship,0.9,3392.0,2421.0,Automobile_3392_Ship_2421.png
182,208,multiple-slider,64,926135,gg1rv501u9gdlln,633dba58fdd310c8d2d6d7e5,5,28671.199999928474,,,,"[0,1]",,,,,,"{""mixingcoeff"":0,""confidence"":51}",mixed_0.9_Dog_6389_Frog_4066.png,rate_mixture,,Dog,Frog,0.9,6389.0,4066.0,Dog_6389_Frog_4066.png
183,209,multiple-slider,65,939579,gg1rv501u9gdlln,633dba58fdd310c8d2d6d7e5,5,13434.699999928474,,,,"[0,1]",,,,,,"{""mixingcoeff"":100,""confidence"":100}",mixed_0.9_Cat_9665_Frog_4579.png,rate_mixture,,Cat,Frog,0.9,9665.0,4579.0,Cat_9665_Frog_4579.png
184,210,multiple-slider,66,948195,gg1rv501u9gdlln,633dba58fdd310c8d2d6d7e5,5,8606.599999904633,,,,"[0,1]",,,,,,"{""mixingcoeff"":0,""confidence"":100}",mixed_0.75_Airplane_1973_Ship_2687.png,rerun_rate_mixture,,Airplane,Ship,0.75,1973.0,2687.0,Airplane_1973_Ship_2687.png
185,211,multiple-slider,67,956520,gg1rv501u9gdlln,633dba58fdd310c8d2d6d7e5,5,8314.899999976158,,,,"[0,1]",,,,,,"{""mixingcoeff"":100,""confidence"":100}",mixed_0.25_Automobile_6685_Frog_6413.png,rerun_rate_mixture,,Automobile,Frog,0.25,6685.0,6413.0,Automobile_6685_Frog_6413.png
186,219,multiple-slider,6,202901,gayjf5a3pzwajdq,633dba58fdd310c8d2d6d7e5,4,23466.700000047684,,,,"[0,1]",,,,,,"{""mixingcoeff"":88,""confidence"":93}",mixed_0.1_Deer_1292_Dog_2012.png,rate_mixture,,Deer,Dog,0.1,1292.0,2012.0,Deer_1292_Dog_2012.png
187,220,multiple-slider,7,217122,gayjf5a3pzwajdq,633dba58fdd310c8d2d6d7e5,4,14216.199999809263,,,,"[0,1]",,,,,,"{""mixingcoeff"":25,""confidence"":69}",mixed_0.75_Deer_5742_Horse_8461.png,rate_mixture,,Deer,Horse,0.75,5742.0,8461.0,Deer_5742_Horse_8461.png
188,221,multiple-slider,8,232801,gayjf5a3pzwajdq,633dba58fdd310c8d2d6d7e5,4,15676.0,,,,"[0,1]",,,,,,"{""mixingcoeff"":64,""confidence"":22}",mixed_0.5_Automobile_4890_Dog_7168.png,rate_mixture,,Automobile,Dog,0.5,4890.0,7168.0,Automobile_4890_Dog_7168.png
189,222,multiple-slider,9,249350,gayjf5a3pzwajdq,633dba58fdd310c8d2d6d7e5,4,16544.900000095367,,,,"[0,1]",,,,,,"{""mixingcoeff"":33,""confidence"":27}",mixed_0.25_Airplane_6437_Cat_8446.png,rate_mixture,,Airplane,Cat,0.25,6437.0,8446.0,Airplane_6437_Cat_8446.png
190,223,multiple-slider,10,261562,gayjf5a3pzwajdq,633dba58fdd310c8d2d6d7e5,4,12208.199999809263,,,,"[0,1]",,,,,,"{""mixingcoeff"":96,""confidence"":93}",mixed_0.1_Dog_9922_Ship_3586.png,rate_mixture,,Dog,Ship,0.1,9922.0,3586.0,Dog_9922_Ship_3586.png
191,224,multiple-slider,11,272970,gayjf5a3pzwajdq,633dba58fdd310c8d2d6d7e5,4,11404.199999809263,,,,"[0,1]",,,,,,"{""mixingcoeff"":76,""confidence"":65}",mixed_0.5_Frog_2802_Ship_9680.png,rate_mixture,,Frog,Ship,0.5,2802.0,9680.0,Frog_2802_Ship_9680.png
192,225,multiple-slider,12,285130,gayjf5a3pzwajdq,633dba58fdd310c8d2d6d7e5,4,12155.799999952316,,,,"[0,1]",,,,,,"{""mixingcoeff"":80,""confidence"":63}",mixed_0.25_Airplane_2400_Truck_7982.png,rate_mixture,,Airplane,Truck,0.25,2400.0,7982.0,Airplane_2400_Truck_7982.png
193,226,multiple-slider,13,298070,gayjf5a3pzwajdq,633dba58fdd310c8d2d6d7e5,4,12935.900000095367,,,,"[0,1]",,,,,,"{""mixingcoeff"":92,""confidence"":89}",mixed_0.25_Deer_8944_Truck_7444.png,rate_mixture,,Deer,Truck,0.25,8944.0,7444.0,Deer_8944_Truck_7444.png
194,227,multiple-slider,14,312400,gayjf5a3pzwajdq,633dba58fdd310c8d2d6d7e5,4,14326.0,,,,"[0,1]",,,,,,"{""mixingcoeff"":77,""confidence"":85}",mixed_0.25_Automobile_6159_Bird_3525.png,rate_mixture,,Automobile,Bird,0.25,6159.0,3525.0,Automobile_6159_Bird_3525.png
195,228,multiple-slider,15,326363,gayjf5a3pzwajdq,633dba58fdd310c8d2d6d7e5,4,13958.399999856949,,,,"[0,1]",,,,,,"{""mixingcoeff"":47,""confidence"":6}",mixed_0.5_Cat_7827_Frog_1184.png,rate_mixture,,Cat,Frog,0.5,7827.0,1184.0,Cat_7827_Frog_1184.png
196,229,multiple-slider,16,336800,gayjf5a3pzwajdq,633dba58fdd310c8d2d6d7e5,4,10432.299999952316,,,,"[0,1]",,,,,,"{""mixingcoeff"":9,""confidence"":93}",mixed_0.75_Deer_5184_Ship_3625.png,rate_mixture,,Deer,Ship,0.75,5184.0,3625.0,Deer_5184_Ship_3625.png
197,230,multiple-slider,17,346697,gayjf5a3pzwajdq,633dba58fdd310c8d2d6d7e5,4,9894.0,,,,"[0,1]",,,,,,"{""mixingcoeff"":28,""confidence"":70}",mixed_0.75_Deer_2809_Horse_4892.png,rate_mixture,,Deer,Horse,0.75,2809.0,4892.0,Deer_2809_Horse_4892.png
198,231,multiple-slider,18,357123,gayjf5a3pzwajdq,633dba58fdd310c8d2d6d7e5,4,10422.299999952316,,,,"[0,1]",,,,,,"{""mixingcoeff"":75,""confidence"":78}",mixed_0.1_Automobile_4611_Deer_5417.png,rate_mixture,,Automobile,Deer,0.1,4611.0,5417.0,Automobile_4611_Deer_5417.png
199,232,multiple-slider,19,368701,gayjf5a3pzwajdq,633dba58fdd310c8d2d6d7e5,4,11573.299999952316,,,,"[0,1]",,,,,,"{""mixingcoeff"":1,""confidence"":99}",mixed_0.9_Bird_5712_Ship_8644.png,rate_mixture,,Bird,Ship,0.9,5712.0,8644.0,Bird_5712_Ship_8644.png
200,233,multiple-slider,20,382347,gayjf5a3pzwajdq,633dba58fdd310c8d2d6d7e5,4,13642.5,,,,"[0,1]",,,,,,"{""mixingcoeff"":50,""confidence"":5}",mixed_0.25_Airplane_9031_Frog_1817.png,rate_mixture,,Airplane,Frog,0.25,9031.0,1817.0,Airplane_9031_Frog_1817.png
201,234,multiple-slider,21,391299,gayjf5a3pzwajdq,633dba58fdd310c8d2d6d7e5,4,8946.800000190735,,,,"[0,1]",,,,,,"{""mixingcoeff"":95,""confidence"":96}",mixed_0.1_Automobile_1549_Dog_3666.png,rate_mixture,,Automobile,Dog,0.1,1549.0,3666.0,Automobile_1549_Dog_3666.png
202,235,multiple-slider,22,400370,gayjf5a3pzwajdq,633dba58fdd310c8d2d6d7e5,4,9065.600000143051,,,,"[0,1]",,,,,,"{""mixingcoeff"":95,""confidence"":94}",mixed_0.1_Bird_4009_Truck_1881.png,rate_mixture,,Bird,Truck,0.1,4009.0,1881.0,Bird_4009_Truck_1881.png
203,236,multiple-slider,23,412148,gayjf5a3pzwajdq,633dba58fdd310c8d2d6d7e5,4,11774.300000190737,,,,"[0,1]",,,,,,"{""mixingcoeff"":2,""confidence"":95}",mixed_0.9_Deer_4472_Frog_1513.png,rate_mixture,,Deer,Frog,0.9,4472.0,1513.0,Deer_4472_Frog_1513.png
204,237,multiple-slider,24,424987,gayjf5a3pzwajdq,633dba58fdd310c8d2d6d7e5,4,12835.299999952316,,,,"[0,1]",,,,,,"{""mixingcoeff"":65,""confidence"":36}",mixed_0.1_Ship_4910_Truck_6804.png,rate_mixture,,Ship,Truck,0.1,4910.0,6804.0,Ship_4910_Truck_6804.png
205,238,multiple-slider,25,439797,gayjf5a3pzwajdq,633dba58fdd310c8d2d6d7e5,4,14806.5,,,,"[0,1]",,,,,,"{""mixingcoeff"":41,""confidence"":60}",mixed_0.5_Airplane_5260_Dog_768.png,rate_mixture,,Airplane,Dog,0.5,5260.0,768.0,Airplane_5260_Dog_768.png
206,239,multiple-slider,26,453046,gayjf5a3pzwajdq,633dba58fdd310c8d2d6d7e5,4,13245.099999904633,,,,"[0,1]",,,,,,"{""mixingcoeff"":66,""confidence"":9}",mixed_0.5_Airplane_7419_Bird_2625.png,rate_mixture,,Airplane,Bird,0.5,7419.0,2625.0,Airplane_7419_Bird_2625.png
207,240,multiple-slider,27,463615,gayjf5a3pzwajdq,633dba58fdd310c8d2d6d7e5,4,10565.099999904633,,,,"[0,1]",,,,,,"{""mixingcoeff"":97,""confidence"":93}",mixed_0.1_Cat_3787_Deer_9104.png,rate_mixture,,Cat,Deer,0.1,3787.0,9104.0,Cat_3787_Deer_9104.png
208,241,multiple-slider,28,472326,gayjf5a3pzwajdq,633dba58fdd310c8d2d6d7e5,4,8707.100000143051,,,,"[0,1]",,,,,,"{""mixingcoeff"":89,""confidence"":88}",mixed_0.25_Cat_5306_Deer_8198.png,rate_mixture,,Cat,Deer,0.25,5306.0,8198.0,Cat_5306_Deer_8198.png
209,242,multiple-slider,29,483547,gayjf5a3pzwajdq,633dba58fdd310c8d2d6d7e5,4,11216.599999904633,,,,"[0,1]",,,,,,"{""mixingcoeff"":4,""confidence"":92}",mixed_0.75_Automobile_7017_Dog_5615.png,rate_mixture,,Automobile,Dog,0.75,7017.0,5615.0,Automobile_7017_Dog_5615.png
210,243,multiple-slider,30,493175,gayjf5a3pzwajdq,633dba58fdd310c8d2d6d7e5,4,9623.900000095367,,,,"[0,1]",,,,,,"{""mixingcoeff"":71,""confidence"":30}",mixed_0.5_Deer_1145_Ship_8133.png,rate_mixture,,Deer,Ship,0.5,1145.0,8133.0,Deer_1145_Ship_8133.png
211,244,multiple-slider,31,508815,gayjf5a3pzwajdq,633dba58fdd310c8d2d6d7e5,4,15635.700000047684,,,,"[0,1]",,,,,,"{""mixingcoeff"":32,""confidence"":17}",mixed_0.5_Cat_3901_Ship_2284.png,rate_mixture,,Cat,Ship,0.5,3901.0,2284.0,Cat_3901_Ship_2284.png
212,245,multiple-slider,32,518601,gayjf5a3pzwajdq,633dba58fdd310c8d2d6d7e5,4,9781.300000190737,,,,"[0,1]",,,,,,"{""mixingcoeff"":22,""confidence"":64}",mixed_0.5_Airplane_2425_Bird_4108.png,rate_mixture,,Airplane,Bird,0.5,2425.0,4108.0,Airplane_2425_Bird_4108.png
213,246,multiple-slider,33,536814,gayjf5a3pzwajdq,633dba58fdd310c8d2d6d7e5,4,18208.79999995232,,,,"[0,1]",,,,,,"{""mixingcoeff"":85,""confidence"":62}",mixed_0.1_Automobile_1458_Deer_165.png,rate_mixture,,Automobile,Deer,0.1,1458.0,165.0,Automobile_1458_Deer_165.png
214,247,multiple-slider,34,544574,gayjf5a3pzwajdq,633dba58fdd310c8d2d6d7e5,4,7755.699999809265,,,,"[0,1]",,,,,,"{""mixingcoeff"":96,""confidence"":96}",mixed_0.1_Ship_8732_Truck_4508.png,rate_mixture,,Ship,Truck,0.1,8732.0,4508.0,Ship_8732_Truck_4508.png
215,248,multiple-slider,35,557474,gayjf5a3pzwajdq,633dba58fdd310c8d2d6d7e5,4,12896.299999952316,,,,"[0,1]",,,,,,"{""mixingcoeff"":98,""confidence"":97}",mixed_0.25_Cat_1625_Dog_2459.png,rate_mixture,,Cat,Dog,0.25,1625.0,2459.0,Cat_1625_Dog_2459.png
216,249,multiple-slider,36,569533,gayjf5a3pzwajdq,633dba58fdd310c8d2d6d7e5,4,12055.5,,,,"[0,1]",,,,,,"{""mixingcoeff"":96,""confidence"":88}",mixed_0.5_Dog_9160_Truck_4979.png,rate_mixture,,Dog,Truck,0.5,9160.0,4979.0,Dog_9160_Truck_4979.png
217,250,multiple-slider,37,577246,gayjf5a3pzwajdq,633dba58fdd310c8d2d6d7e5,4,7708.299999952316,,,,"[0,1]",,,,,,"{""mixingcoeff"":67,""confidence"":33}",mixed_0.5_Airplane_2966_Truck_1834.png,rate_mixture,,Airplane,Truck,0.5,2966.0,1834.0,Airplane_2966_Truck_1834.png
218,251,multiple-slider,38,586713,gayjf5a3pzwajdq,633dba58fdd310c8d2d6d7e5,4,9461.099999904633,,,,"[0,1]",,,,,,"{""mixingcoeff"":17,""confidence"":86}",mixed_0.75_Ship_2579_Truck_3970.png,rate_mixture,,Ship,Truck,0.75,2579.0,3970.0,Ship_2579_Truck_3970.png
219,252,multiple-slider,39,594273,gayjf5a3pzwajdq,633dba58fdd310c8d2d6d7e5,4,7554.299999952316,,,,"[0,1]",,,,,,"{""mixingcoeff"":89,""confidence"":80}",mixed_0.1_Automobile_4080_Dog_7608.png,rate_mixture,,Automobile,Dog,0.1,4080.0,7608.0,Automobile_4080_Dog_7608.png
220,253,multiple-slider,40,608624,gayjf5a3pzwajdq,633dba58fdd310c8d2d6d7e5,4,14347.100000143051,,,,"[0,1]",,,,,,"{""mixingcoeff"":90,""confidence"":81}",mixed_0.1_Frog_2707_Ship_1556.png,rate_mixture,,Frog,Ship,0.1,2707.0,1556.0,Frog_2707_Ship_1556.png
221,254,multiple-slider,41,617321,gayjf5a3pzwajdq,633dba58fdd310c8d2d6d7e5,4,8692.599999904633,,,,"[0,1]",,,,,,"{""mixingcoeff"":6,""confidence"":94}",mixed_0.9_Cat_7509_Ship_9889.png,rate_mixture,,Cat,Ship,0.9,7509.0,9889.0,Cat_7509_Ship_9889.png
222,255,multiple-slider,42,625451,gayjf5a3pzwajdq,633dba58fdd310c8d2d6d7e5,4,8126.0,,,,"[0,1]",,,,,,"{""mixingcoeff"":27,""confidence"":73}",mixed_0.5_Deer_9610_Ship_8921.png,rate_mixture,,Deer,Ship,0.5,9610.0,8921.0,Deer_9610_Ship_8921.png
223,256,multiple-slider,43,632931,gayjf5a3pzwajdq,633dba58fdd310c8d2d6d7e5,4,7476.700000047684,,,,"[0,1]",,,,,,"{""mixingcoeff"":78,""confidence"":71}",mixed_0.1_Cat_5413_Frog_616.png,rate_mixture,,Cat,Frog,0.1,5413.0,616.0,Cat_5413_Frog_616.png
224,257,multiple-slider,44,643561,gayjf5a3pzwajdq,633dba58fdd310c8d2d6d7e5,4,10626.099999904633,,,,"[0,1]",,,,,,"{""mixingcoeff"":66,""confidence"":35}",mixed_0.5_Bird_8967_Horse_1096.png,rate_mixture,,Bird,Horse,0.5,8967.0,1096.0,Bird_8967_Horse_1096.png
225,258,multiple-slider,45,652191,gayjf5a3pzwajdq,633dba58fdd310c8d2d6d7e5,4,8625.299999952316,,,,"[0,1]",,,,,,"{""mixingcoeff"":83,""confidence"":91}",mixed_0.1_Bird_7068_Deer_8886.png,rate_mixture,,Bird,Deer,0.1,7068.0,8886.0,Bird_7068_Deer_8886.png
226,259,multiple-slider,46,660750,gayjf5a3pzwajdq,633dba58fdd310c8d2d6d7e5,4,8553.899999856949,,,,"[0,1]",,,,,,"{""mixingcoeff"":3,""confidence"":97}",mixed_0.9_Dog_3726_Truck_9143.png,rate_mixture,,Dog,Truck,0.9,3726.0,9143.0,Dog_3726_Truck_9143.png
227,260,multiple-slider,47,671386,gayjf5a3pzwajdq,633dba58fdd310c8d2d6d7e5,4,10631.900000095367,,,,"[0,1]",,,,,,"{""mixingcoeff"":53,""confidence"":12}",mixed_0.75_Ship_1349_Truck_4091.png,rate_mixture,,Ship,Truck,0.75,1349.0,4091.0,Ship_1349_Truck_4091.png
228,261,multiple-slider,48,681289,gayjf5a3pzwajdq,633dba58fdd310c8d2d6d7e5,4,9897.099999904633,,,,"[0,1]",,,,,,"{""mixingcoeff"":47,""confidence"":7}",mixed_0.5_Dog_6043_Ship_6961.png,rate_mixture,,Dog,Ship,0.5,6043.0,6961.0,Dog_6043_Ship_6961.png
229,262,multiple-slider,49,690501,gayjf5a3pzwajdq,633dba58fdd310c8d2d6d7e5,4,9207.900000095367,,,,"[0,1]",,,,,,"{""mixingcoeff"":67,""confidence"":45}",mixed_0.25_Automobile_3488_Horse_3879.png,rate_mixture,,Automobile,Horse,0.25,3488.0,3879.0,Automobile_3488_Horse_3879.png
230,263,multiple-slider,50,701310,gayjf5a3pzwajdq,633dba58fdd310c8d2d6d7e5,4,10805.299999952316,,,,"[0,1]",,,,,,"{""mixingcoeff"":78,""confidence"":73}",mixed_0.1_Cat_1056_Dog_8300.png,rate_mixture,,Cat,Dog,0.1,1056.0,8300.0,Cat_1056_Dog_8300.png
231,264,multiple-slider,51,711730,gayjf5a3pzwajdq,633dba58fdd310c8d2d6d7e5,4,10414.700000047684,,,,"[0,1]",,,,,,"{""mixingcoeff"":7,""confidence"":90}",mixed_0.9_Airplane_9271_Automobile_9455.png,rate_mixture,,Airplane,Automobile,0.9,9271.0,9455.0,Airplane_9271_Automobile_9455.png
232,265,multiple-slider,52,723460,gayjf5a3pzwajdq,633dba58fdd310c8d2d6d7e5,4,11726.299999952316,,,,"[0,1]",,,,,,"{""mixingcoeff"":82,""confidence"":91}",mixed_0.5_Bird_1963_Ship_2245.png,rate_mixture,,Bird,Ship,0.5,1963.0,2245.0,Bird_1963_Ship_2245.png
233,266,multiple-slider,53,733090,gayjf5a3pzwajdq,633dba58fdd310c8d2d6d7e5,4,9626.400000095367,,,,"[0,1]",,,,,,"{""mixingcoeff"":88,""confidence"":93}",mixed_0.1_Deer_4488_Dog_5115.png,rate_mixture,,Deer,Dog,0.1,4488.0,5115.0,Deer_4488_Dog_5115.png
234,267,multiple-slider,54,747210,gayjf5a3pzwajdq,633dba58fdd310c8d2d6d7e5,4,14115.600000143051,,,,"[0,1]",,,,,,"{""mixingcoeff"":40,""confidence"":64}",mixed_0.75_Airplane_3494_Horse_3786.png,rate_mixture,,Airplane,Horse,0.75,3494.0,3786.0,Airplane_3494_Horse_3786.png
235,268,multiple-slider,55,756350,gayjf5a3pzwajdq,633dba58fdd310c8d2d6d7e5,4,9135.399999856949,,,,"[0,1]",,,,,,"{""mixingcoeff"":17,""confidence"":74}",mixed_0.75_Frog_1184_Horse_3009.png,rate_mixture,,Frog,Horse,0.75,1184.0,3009.0,Frog_1184_Horse_3009.png
236,269,multiple-slider,56,765629,gayjf5a3pzwajdq,633dba58fdd310c8d2d6d7e5,4,9273.899999856949,,,,"[0,1]",,,,,,"{""mixingcoeff"":93,""confidence"":95}",mixed_0.1_Cat_6726_Truck_1287.png,rate_mixture,,Cat,Truck,0.1,6726.0,1287.0,Cat_6726_Truck_1287.png
237,270,multiple-slider,57,773089,gayjf5a3pzwajdq,633dba58fdd310c8d2d6d7e5,4,7455.899999856949,,,,"[0,1]",,,,,,"{""mixingcoeff"":94,""confidence"":92}",mixed_0.25_Cat_2261_Horse_4781.png,rate_mixture,,Cat,Horse,0.25,2261.0,4781.0,Cat_2261_Horse_4781.png
238,271,multiple-slider,58,784089,gayjf5a3pzwajdq,633dba58fdd310c8d2d6d7e5,4,10996.699999809263,,,,"[0,1]",,,,,,"{""mixingcoeff"":53,""confidence"":26}",mixed_0.5_Automobile_9998_Ship_4223.png,rate_mixture,,Automobile,Ship,0.5,9998.0,4223.0,Automobile_9998_Ship_4223.png
239,272,multiple-slider,59,796018,gayjf5a3pzwajdq,633dba58fdd310c8d2d6d7e5,4,11924.0,,,,"[0,1]",,,,,,"{""mixingcoeff"":13,""confidence"":92}",mixed_0.75_Airplane_3965_Deer_3378.png,rate_mixture,,Airplane,Deer,0.75,3965.0,3378.0,Airplane_3965_Deer_3378.png
240,273,multiple-slider,60,804867,gayjf5a3pzwajdq,633dba58fdd310c8d2d6d7e5,4,8844.700000047684,,,,"[0,1]",,,,,,"{""mixingcoeff"":78,""confidence"":90}",mixed_0.5_Cat_9498_Dog_6014.png,rate_mixture,,Cat,Dog,0.5,9498.0,6014.0,Cat_9498_Dog_6014.png
241,274,multiple-slider,61,815266,gayjf5a3pzwajdq,633dba58fdd310c8d2d6d7e5,4,10394.400000095367,,,,"[0,1]",,,,,,"{""mixingcoeff"":37,""confidence"":4}",mixed_0.9_Cat_6990_Dog_6609.png,rate_mixture,,Cat,Dog,0.9,6990.0,6609.0,Cat_6990_Dog_6609.png
242,275,multiple-slider,62,822936,gayjf5a3pzwajdq,633dba58fdd310c8d2d6d7e5,4,7665.299999952316,,,,"[0,1]",,,,,,"{""mixingcoeff"":89,""confidence"":88}",mixed_0.1_Deer_1443_Frog_9136.png,rate_mixture,,Deer,Frog,0.1,1443.0,9136.0,Deer_1443_Frog_9136.png
243,276,multiple-slider,63,830406,gayjf5a3pzwajdq,633dba58fdd310c8d2d6d7e5,4,7465.099999904633,,,,"[0,1]",,,,,,"{""mixingcoeff"":80,""confidence"":71}",mixed_0.1_Dog_8236_Frog_635.png,rate_mixture,,Dog,Frog,0.1,8236.0,635.0,Dog_8236_Frog_635.png
244,277,multiple-slider,64,840006,gayjf5a3pzwajdq,633dba58fdd310c8d2d6d7e5,4,9596.400000095367,,,,"[0,1]",,,,,,"{""mixingcoeff"":73,""confidence"":59}",mixed_0.25_Frog_4669_Truck_1893.png,rate_mixture,,Frog,Truck,0.25,4669.0,1893.0,Frog_4669_Truck_1893.png
245,278,multiple-slider,65,854836,gayjf5a3pzwajdq,633dba58fdd310c8d2d6d7e5,4,14824.5,,,,"[0,1]",,,,,,"{""mixingcoeff"":87,""confidence"":94}",mixed_0.25_Automobile_8712_Frog_6558.png,rate_mixture,,Automobile,Frog,0.25,8712.0,6558.0,Automobile_8712_Frog_6558.png
246,279,multiple-slider,66,861475,gayjf5a3pzwajdq,633dba58fdd310c8d2d6d7e5,4,6635.0,,,,"[0,1]",,,,,,"{""mixingcoeff"":93,""confidence"":95}",mixed_0.1_Automobile_1549_Dog_3666.png,rerun_rate_mixture,,Automobile,Dog,0.1,1549.0,3666.0,Automobile_1549_Dog_3666.png
247,280,multiple-slider,67,870076,gayjf5a3pzwajdq,633dba58fdd310c8d2d6d7e5,4,8597.5,,,,"[0,1]",,,,,,"{""mixingcoeff"":61,""confidence"":17}",mixed_0.5_Airplane_7419_Bird_2625.png,rerun_rate_mixture,,Airplane,Bird,0.5,7419.0,2625.0,Airplane_7419_Bird_2625.png
248,288,multiple-slider,6,107231,w51xzn5rmckeb7l,633dba58fdd310c8d2d6d7e5,1,11111.299999713898,,,,"[0,1]",,,,,,"{""mixingcoeff"":100,""confidence"":100}",mixed_0.1_Horse_2642_Truck_6811.png,rate_mixture,,Horse,Truck,0.1,2642.0,6811.0,Horse_2642_Truck_6811.png
249,289,multiple-slider,7,119532,w51xzn5rmckeb7l,633dba58fdd310c8d2d6d7e5,1,12295.800000190737,,,,"[0,1]",,,,,,"{""mixingcoeff"":100,""confidence"":100}",mixed_0.1_Bird_9230_Dog_6608.png,rate_mixture,,Bird,Dog,0.1,9230.0,6608.0,Bird_9230_Dog_6608.png
250,290,multiple-slider,8,128265,w51xzn5rmckeb7l,633dba58fdd310c8d2d6d7e5,1,8728.900000095367,,,,"[0,1]",,,,,,"{""mixingcoeff"":0,""confidence"":100}",mixed_0.5_Cat_5313_Truck_9026.png,rate_mixture,,Cat,Truck,0.5,5313.0,9026.0,Cat_5313_Truck_9026.png
251,291,multiple-slider,9,137567,w51xzn5rmckeb7l,633dba58fdd310c8d2d6d7e5,1,9295.599999904633,,,,"[0,1]",,,,,,"{""mixingcoeff"":100,""confidence"":100}",mixed_0.1_Bird_6636_Truck_4872.png,rate_mixture,,Bird,Truck,0.1,6636.0,4872.0,Bird_6636_Truck_4872.png
252,292,multiple-slider,10,154051,w51xzn5rmckeb7l,633dba58fdd310c8d2d6d7e5,1,16479.400000095367,,,,"[0,1]",,,,,,"{""mixingcoeff"":44,""confidence"":67}",mixed_0.25_Automobile_1258_Truck_3676.png,rate_mixture,,Automobile,Truck,0.25,1258.0,3676.0,Automobile_1258_Truck_3676.png
253,293,multiple-slider,11,160702,w51xzn5rmckeb7l,633dba58fdd310c8d2d6d7e5,1,6645.800000190735,,,,"[0,1]",,,,,,"{""mixingcoeff"":0,""confidence"":100}",mixed_0.9_Horse_5320_Ship_8732.png,rate_mixture,,Horse,Ship,0.9,5320.0,8732.0,Horse_5320_Ship_8732.png
254,294,multiple-slider,12,169435,w51xzn5rmckeb7l,633dba58fdd310c8d2d6d7e5,1,8728.89999961853,,,,"[0,1]",,,,,,"{""mixingcoeff"":100,""confidence"":100}",mixed_0.5_Dog_729_Horse_5695.png,rate_mixture,,Dog,Horse,0.5,729.0,5695.0,Dog_729_Horse_5695.png
255,295,multiple-slider,13,179270,w51xzn5rmckeb7l,633dba58fdd310c8d2d6d7e5,1,9831.700000286102,,,,"[0,1]",,,,,,"{""mixingcoeff"":93,""confidence"":94}",mixed_0.1_Deer_4159_Horse_9222.png,rate_mixture,,Deer,Horse,0.1,4159.0,9222.0,Deer_4159_Horse_9222.png
256,296,multiple-slider,14,187391,w51xzn5rmckeb7l,633dba58fdd310c8d2d6d7e5,1,8116.5,,,,"[0,1]",,,,,,"{""mixingcoeff"":0,""confidence"":100}",mixed_0.75_Airplane_8471_Bird_8085.png,rate_mixture,,Airplane,Bird,0.75,8471.0,8085.0,Airplane_8471_Bird_8085.png
257,297,multiple-slider,15,194071,w51xzn5rmckeb7l,633dba58fdd310c8d2d6d7e5,1,6676.700000286102,,,,"[0,1]",,,,,,"{""mixingcoeff"":0,""confidence"":100}",mixed_0.75_Airplane_27_Truck_4091.png,rate_mixture,,Airplane,Truck,0.75,27.0,4091.0,Airplane_27_Truck_4091.png
258,298,multiple-slider,16,201905,w51xzn5rmckeb7l,633dba58fdd310c8d2d6d7e5,1,7829.900000095367,,,,"[0,1]",,,,,,"{""mixingcoeff"":100,""confidence"":100}",mixed_0.1_Airplane_5618_Ship_368.png,rate_mixture,,Airplane,Ship,0.1,5618.0,368.0,Airplane_5618_Ship_368.png
259,299,multiple-slider,17,212523,w51xzn5rmckeb7l,633dba58fdd310c8d2d6d7e5,1,10613.099999904633,,,,"[0,1]",,,,,,"{""mixingcoeff"":51,""confidence"":3}",mixed_0.75_Deer_373_Frog_1017.png,rate_mixture,,Deer,Frog,0.75,373.0,1017.0,Deer_373_Frog_1017.png
260,300,multiple-slider,18,220874,w51xzn5rmckeb7l,633dba58fdd310c8d2d6d7e5,1,8346.300000190735,,,,"[0,1]",,,,,,"{""mixingcoeff"":100,""confidence"":100}",mixed_0.1_Dog_2459_Horse_3913.png,rate_mixture,,Dog,Horse,0.1,2459.0,3913.0,Dog_2459_Horse_3913.png
261,301,multiple-slider,19,228891,w51xzn5rmckeb7l,633dba58fdd310c8d2d6d7e5,1,8013.099999904633,,,,"[0,1]",,,,,,"{""mixingcoeff"":6,""confidence"":94}",mixed_0.75_Bird_1321_Frog_8392.png,rate_mixture,,Bird,Frog,0.75,1321.0,8392.0,Bird_1321_Frog_8392.png
262,302,multiple-slider,20,234941,w51xzn5rmckeb7l,633dba58fdd310c8d2d6d7e5,1,6045.599999904633,,,,"[0,1]",,,,,,"{""mixingcoeff"":0,""confidence"":100}",mixed_0.9_Automobile_1013_Dog_7279.png,rate_mixture,,Automobile,Dog,0.9,1013.0,7279.0,Automobile_1013_Dog_7279.png
263,303,multiple-slider,21,241142,w51xzn5rmckeb7l,633dba58fdd310c8d2d6d7e5,1,6196.0,,,,"[0,1]",,,,,,"{""mixingcoeff"":100,""confidence"":100}",mixed_0.1_Airplane_9533_Horse_713.png,rate_mixture,,Airplane,Horse,0.1,9533.0,713.0,Airplane_9533_Horse_713.png
264,304,multiple-slider,22,246691,w51xzn5rmckeb7l,633dba58fdd310c8d2d6d7e5,1,5544.400000095367,,,,"[0,1]",,,,,,"{""mixingcoeff"":0,""confidence"":100}",mixed_0.9_Automobile_1141_Bird_9750.png,rate_mixture,,Automobile,Bird,0.9,1141.0,9750.0,Automobile_1141_Bird_9750.png
265,305,multiple-slider,23,258544,w51xzn5rmckeb7l,633dba58fdd310c8d2d6d7e5,1,11849.799999713898,,,,"[0,1]",,,,,,"{""mixingcoeff"":98,""confidence"":98}",mixed_0.75_Horse_9103_Truck_6143.png,rate_mixture,,Horse,Truck,0.75,9103.0,6143.0,Horse_9103_Truck_6143.png
266,306,multiple-slider,24,268111,w51xzn5rmckeb7l,633dba58fdd310c8d2d6d7e5,1,9563.099999904633,,,,"[0,1]",,,,,,"{""mixingcoeff"":44,""confidence"":51}",mixed_0.5_Automobile_6173_Truck_7826.png,rate_mixture,,Automobile,Truck,0.5,6173.0,7826.0,Automobile_6173_Truck_7826.png
267,307,multiple-slider,25,275212,w51xzn5rmckeb7l,633dba58fdd310c8d2d6d7e5,1,7096.099999904633,,,,"[0,1]",,,,,,"{""mixingcoeff"":0,""confidence"":100}",mixed_0.9_Automobile_8910_Horse_6318.png,rate_mixture,,Automobile,Horse,0.9,8910.0,6318.0,Automobile_8910_Horse_6318.png
268,308,multiple-slider,26,284379,w51xzn5rmckeb7l,633dba58fdd310c8d2d6d7e5,1,9162.699999809263,,,,"[0,1]",,,,,,"{""mixingcoeff"":0,""confidence"":100}",mixed_0.75_Bird_5910_Deer_159.png,rate_mixture,,Bird,Deer,0.75,5910.0,159.0,Bird_5910_Deer_159.png
269,309,multiple-slider,27,290180,w51xzn5rmckeb7l,633dba58fdd310c8d2d6d7e5,1,5795.799999713898,,,,"[0,1]",,,,,,"{""mixingcoeff"":0,""confidence"":100}",mixed_0.75_Horse_2904_Ship_6594.png,rate_mixture,,Horse,Ship,0.75,2904.0,6594.0,Horse_2904_Ship_6594.png
270,310,multiple-slider,28,298681,w51xzn5rmckeb7l,633dba58fdd310c8d2d6d7e5,1,8495.799999713898,,,,"[0,1]",,,,,,"{""mixingcoeff"":0,""confidence"":100}",mixed_0.75_Airplane_6077_Dog_2969.png,rate_mixture,,Airplane,Dog,0.75,6077.0,2969.0,Airplane_6077_Dog_2969.png
271,311,multiple-slider,29,304731,w51xzn5rmckeb7l,633dba58fdd310c8d2d6d7e5,1,6046.0,,,,"[0,1]",,,,,,"{""mixingcoeff"":100,""confidence"":100}",mixed_0.1_Horse_8718_Truck_6267.png,rate_mixture,,Horse,Truck,0.1,8718.0,6267.0,Horse_8718_Truck_6267.png
272,312,multiple-slider,30,314797,w51xzn5rmckeb7l,633dba58fdd310c8d2d6d7e5,1,10061.5,,,,"[0,1]",,,,,,"{""mixingcoeff"":100,""confidence"":100}",mixed_0.1_Cat_6163_Deer_3696.png,rate_mixture,,Cat,Deer,0.1,6163.0,3696.0,Cat_6163_Deer_3696.png
273,313,multiple-slider,31,321647,w51xzn5rmckeb7l,633dba58fdd310c8d2d6d7e5,1,6847.099999904633,,,,"[0,1]",,,,,,"{""mixingcoeff"":100,""confidence"":100}",mixed_0.25_Bird_4108_Dog_7820.png,rate_mixture,,Bird,Dog,0.25,4108.0,7820.0,Bird_4108_Dog_7820.png
274,314,multiple-slider,32,327583,w51xzn5rmckeb7l,633dba58fdd310c8d2d6d7e5,1,5933.200000286102,,,,"[0,1]",,,,,,"{""mixingcoeff"":100,""confidence"":100}",mixed_0.5_Bird_3998_Truck_7563.png,rate_mixture,,Bird,Truck,0.5,3998.0,7563.0,Bird_3998_Truck_7563.png
275,315,multiple-slider,33,334351,w51xzn5rmckeb7l,633dba58fdd310c8d2d6d7e5,1,6763.199999809265,,,,"[0,1]",,,,,,"{""mixingcoeff"":0,""confidence"":100}",mixed_0.9_Dog_3496_Horse_3096.png,rate_mixture,,Dog,Horse,0.9,3496.0,3096.0,Dog_3496_Horse_3096.png
276,316,multiple-slider,34,339518,w51xzn5rmckeb7l,633dba58fdd310c8d2d6d7e5,1,5163.0,,,,"[0,1]",,,,,,"{""mixingcoeff"":0,""confidence"":100}",mixed_0.9_Frog_907_Truck_8652.png,rate_mixture,,Frog,Truck,0.9,907.0,8652.0,Frog_907_Truck_8652.png
277,317,multiple-slider,35,344951,w51xzn5rmckeb7l,633dba58fdd310c8d2d6d7e5,1,5429.599999904633,,,,"[0,1]",,,,,,"{""mixingcoeff"":100,""confidence"":100}",mixed_0.1_Automobile_8663_Horse_3071.png,rate_mixture,,Automobile,Horse,0.1,8663.0,3071.0,Automobile_8663_Horse_3071.png
278,318,multiple-slider,36,350602,w51xzn5rmckeb7l,633dba58fdd310c8d2d6d7e5,1,5645.900000095367,,,,"[0,1]",,,,,,"{""mixingcoeff"":0,""confidence"":100}",mixed_0.9_Bird_1240_Cat_3787.png,rate_mixture,,Bird,Cat,0.9,1240.0,3787.0,Bird_1240_Cat_3787.png
279,319,multiple-slider,37,360452,w51xzn5rmckeb7l,633dba58fdd310c8d2d6d7e5,1,9845.900000095367,,,,"[0,1]",,,,,,"{""mixingcoeff"":49,""confidence"":58}",mixed_0.5_Automobile_1633_Frog_3797.png,rate_mixture,,Automobile,Frog,0.5,1633.0,3797.0,Automobile_1633_Frog_3797.png
280,320,multiple-slider,38,368387,w51xzn5rmckeb7l,633dba58fdd310c8d2d6d7e5,1,7930.300000190735,,,,"[0,1]",,,,,,"{""mixingcoeff"":38,""confidence"":64}",mixed_0.5_Airplane_5721_Cat_2643.png,rate_mixture,,Airplane,Cat,0.5,5721.0,2643.0,Airplane_5721_Cat_2643.png
281,321,multiple-slider,39,376471,w51xzn5rmckeb7l,633dba58fdd310c8d2d6d7e5,1,8080.0,,,,"[0,1]",,,,,,"{""mixingcoeff"":87,""confidence"":72}",mixed_0.5_Airplane_4228_Bird_6160.png,rate_mixture,,Airplane,Bird,0.5,4228.0,6160.0,Airplane_4228_Bird_6160.png
282,322,multiple-slider,40,387621,w51xzn5rmckeb7l,633dba58fdd310c8d2d6d7e5,1,11145.699999809263,,,,"[0,1]",,,,,,"{""mixingcoeff"":12,""confidence"":68}",mixed_0.25_Deer_4249_Ship_7392.png,rate_mixture,,Deer,Ship,0.25,4249.0,7392.0,Deer_4249_Ship_7392.png
283,323,multiple-slider,41,398123,w51xzn5rmckeb7l,633dba58fdd310c8d2d6d7e5,1,10496.200000286102,,,,"[0,1]",,,,,,"{""mixingcoeff"":65,""confidence"":43}",mixed_0.5_Deer_4529_Truck_4365.png,rate_mixture,,Deer,Truck,0.5,4529.0,4365.0,Deer_4529_Truck_4365.png
284,324,multiple-slider,42,411107,w51xzn5rmckeb7l,633dba58fdd310c8d2d6d7e5,1,12979.5,,,,"[0,1]",,,,,,"{""mixingcoeff"":93,""confidence"":72}",mixed_0.75_Ship_2007_Truck_7597.png,rate_mixture,,Ship,Truck,0.75,2007.0,7597.0,Ship_2007_Truck_7597.png
285,325,multiple-slider,43,417941,w51xzn5rmckeb7l,633dba58fdd310c8d2d6d7e5,1,6829.300000190735,,,,"[0,1]",,,,,,"{""mixingcoeff"":100,""confidence"":100}",mixed_0.25_Cat_6833_Deer_4159.png,rate_mixture,,Cat,Deer,0.25,6833.0,4159.0,Cat_6833_Deer_4159.png
286,326,multiple-slider,44,427309,w51xzn5rmckeb7l,633dba58fdd310c8d2d6d7e5,1,9363.0,,,,"[0,1]",,,,,,"{""mixingcoeff"":26,""confidence"":74}",mixed_0.5_Airplane_8267_Cat_4050.png,rate_mixture,,Airplane,Cat,0.5,8267.0,4050.0,Airplane_8267_Cat_4050.png
287,327,multiple-slider,45,435360,w51xzn5rmckeb7l,633dba58fdd310c8d2d6d7e5,1,8046.0,,,,"[0,1]",,,,,,"{""mixingcoeff"":0,""confidence"":100}",mixed_0.75_Dog_614_Frog_2299.png,rate_mixture,,Dog,Frog,0.75,614.0,2299.0,Dog_614_Frog_2299.png
288,328,multiple-slider,46,441060,w51xzn5rmckeb7l,633dba58fdd310c8d2d6d7e5,1,5695.199999809265,,,,"[0,1]",,,,,,"{""mixingcoeff"":100,""confidence"":100}",mixed_0.25_Deer_2971_Truck_5660.png,rate_mixture,,Deer,Truck,0.25,2971.0,5660.0,Deer_2971_Truck_5660.png
289,329,multiple-slider,47,446410,w51xzn5rmckeb7l,633dba58fdd310c8d2d6d7e5,1,5345.800000190735,,,,"[0,1]",,,,,,"{""mixingcoeff"":100,""confidence"":100}",mixed_0.1_Airplane_5280_Truck_1808.png,rate_mixture,,Airplane,Truck,0.1,5280.0,1808.0,Airplane_5280_Truck_1808.png
290,330,multiple-slider,48,452128,w51xzn5rmckeb7l,633dba58fdd310c8d2d6d7e5,1,5713.0,,,,"[0,1]",,,,,,"{""mixingcoeff"":0,""confidence"":100}",mixed_0.75_Airplane_6128_Cat_669.png,rate_mixture,,Airplane,Cat,0.75,6128.0,669.0,Airplane_6128_Cat_669.png
291,331,multiple-slider,49,461095,w51xzn5rmckeb7l,633dba58fdd310c8d2d6d7e5,1,8962.800000190735,,,,"[0,1]",,,,,,"{""mixingcoeff"":29,""confidence"":55}",mixed_0.5_Frog_152_Truck_9583.png,rate_mixture,,Frog,Truck,0.5,152.0,9583.0,Frog_152_Truck_9583.png
292,332,multiple-slider,50,467195,w51xzn5rmckeb7l,633dba58fdd310c8d2d6d7e5,1,6095.800000190735,,,,"[0,1]",,,,,,"{""mixingcoeff"":100,""confidence"":100}",mixed_0.1_Airplane_5310_Frog_7057.png,rate_mixture,,Airplane,Frog,0.1,5310.0,7057.0,Airplane_5310_Frog_7057.png
293,333,multiple-slider,51,472846,w51xzn5rmckeb7l,633dba58fdd310c8d2d6d7e5,1,5646.699999809265,,,,"[0,1]",,,,,,"{""mixingcoeff"":0,""confidence"":100}",mixed_0.9_Frog_6503_Truck_2876.png,rate_mixture,,Frog,Truck,0.9,6503.0,2876.0,Frog_6503_Truck_2876.png
294,334,multiple-slider,52,481080,w51xzn5rmckeb7l,633dba58fdd310c8d2d6d7e5,1,8229.299999713898,,,,"[0,1]",,,,,,"{""mixingcoeff"":0,""confidence"":100}",mixed_0.9_Automobile_9744_Bird_1321.png,rate_mixture,,Automobile,Bird,0.9,9744.0,1321.0,Automobile_9744_Bird_1321.png
295,335,multiple-slider,53,488447,w51xzn5rmckeb7l,633dba58fdd310c8d2d6d7e5,1,7362.900000095367,,,,"[0,1]",,,,,,"{""mixingcoeff"":0,""confidence"":100}",mixed_0.75_Cat_3617_Ship_8583.png,rate_mixture,,Cat,Ship,0.75,3617.0,8583.0,Cat_3617_Ship_8583.png
296,336,multiple-slider,54,494481,w51xzn5rmckeb7l,633dba58fdd310c8d2d6d7e5,1,6029.199999809265,,,,"[0,1]",,,,,,"{""mixingcoeff"":100,""confidence"":100}",mixed_0.25_Horse_5153_Ship_3842.png,rate_mixture,,Horse,Ship,0.25,5153.0,3842.0,Horse_5153_Ship_3842.png
297,337,multiple-slider,55,500198,w51xzn5rmckeb7l,633dba58fdd310c8d2d6d7e5,1,5712.0,,,,"[0,1]",,,,,,"{""mixingcoeff"":0,""confidence"":100}",mixed_0.9_Airplane_298_Bird_8747.png,rate_mixture,,Airplane,Bird,0.9,298.0,8747.0,Airplane_298_Bird_8747.png
298,338,multiple-slider,56,512900,w51xzn5rmckeb7l,633dba58fdd310c8d2d6d7e5,1,12698.900000095367,,,,"[0,1]",,,,,,"{""mixingcoeff"":0,""confidence"":100}",mixed_0.75_Frog_8270_Horse_1073.png,rate_mixture,,Frog,Horse,0.75,8270.0,1073.0,Frog_8270_Horse_1073.png
299,339,multiple-slider,57,522267,w51xzn5rmckeb7l,633dba58fdd310c8d2d6d7e5,1,9362.700000286102,,,,"[0,1]",,,,,,"{""mixingcoeff"":37,""confidence"":56}",mixed_0.75_Frog_9513_Horse_5782.png,rate_mixture,,Frog,Horse,0.75,9513.0,5782.0,Frog_9513_Horse_5782.png
300,340,multiple-slider,58,528601,w51xzn5rmckeb7l,633dba58fdd310c8d2d6d7e5,1,6329.300000190735,,,,"[0,1]",,,,,,"{""mixingcoeff"":100,""confidence"":100}",mixed_0.25_Frog_7548_Truck_9566.png,rate_mixture,,Frog,Truck,0.25,7548.0,9566.0,Frog_7548_Truck_9566.png
301,341,multiple-slider,59,536602,w51xzn5rmckeb7l,633dba58fdd310c8d2d6d7e5,1,7995.799999713898,,,,"[0,1]",,,,,,"{""mixingcoeff"":0,""confidence"":100}",mixed_0.75_Bird_3328_Frog_3465.png,rate_mixture,,Bird,Frog,0.75,3328.0,3465.0,Bird_3328_Frog_3465.png
302,342,multiple-slider,60,541869,w51xzn5rmckeb7l,633dba58fdd310c8d2d6d7e5,1,5261.300000190735,,,,"[0,1]",,,,,,"{""mixingcoeff"":0,""confidence"":100}",mixed_0.9_Dog_3137_Truck_5966.png,rate_mixture,,Dog,Truck,0.9,3137.0,5966.0,Dog_3137_Truck_5966.png
303,343,multiple-slider,61,548652,w51xzn5rmckeb7l,633dba58fdd310c8d2d6d7e5,1,6778.599999904633,,,,"[0,1]",,,,,,"{""mixingcoeff"":0,""confidence"":100}",mixed_0.5_Bird_8654_Deer_7740.png,rate_mixture,,Bird,Deer,0.5,8654.0,7740.0,Bird_8654_Deer_7740.png
304,344,multiple-slider,62,555685,w51xzn5rmckeb7l,633dba58fdd310c8d2d6d7e5,1,7030.0,,,,"[0,1]",,,,,,"{""mixingcoeff"":100,""confidence"":100}",mixed_0.1_Automobile_363_Deer_714.png,rate_mixture,,Automobile,Deer,0.1,363.0,714.0,Automobile_363_Deer_714.png
305,345,multiple-slider,63,561204,w51xzn5rmckeb7l,633dba58fdd310c8d2d6d7e5,1,5515.900000095367,,,,"[0,1]",,,,,,"{""mixingcoeff"":100,""confidence"":100}",mixed_0.1_Ship_6414_Truck_9594.png,rate_mixture,,Ship,Truck,0.1,6414.0,9594.0,Ship_6414_Truck_9594.png
306,346,multiple-slider,64,567288,w51xzn5rmckeb7l,633dba58fdd310c8d2d6d7e5,1,6079.39999961853,,,,"[0,1]",,,,,,"{""mixingcoeff"":100,""confidence"":100}",mixed_0.1_Deer_4436_Frog_8038.png,rate_mixture,,Deer,Frog,0.1,4436.0,8038.0,Deer_4436_Frog_8038.png
307,347,multiple-slider,65,572238,w51xzn5rmckeb7l,633dba58fdd310c8d2d6d7e5,1,4945.699999809265,,,,"[0,1]",,,,,,"{""mixingcoeff"":0,""confidence"":100}",mixed_0.75_Horse_9671_Truck_1853.png,rate_mixture,,Horse,Truck,0.75,9671.0,1853.0,Horse_9671_Truck_1853.png
308,348,multiple-slider,66,578121,w51xzn5rmckeb7l,633dba58fdd310c8d2d6d7e5,1,5878.699999809265,,,,"[0,1]",,,,,,"{""mixingcoeff"":100,""confidence"":100}",mixed_0.1_Airplane_9533_Horse_713.png,rerun_rate_mixture,,Airplane,Horse,0.1,9533.0,713.0,Airplane_9533_Horse_713.png
309,349,multiple-slider,67,583239,w51xzn5rmckeb7l,633dba58fdd310c8d2d6d7e5,1,5114.0,,,,"[0,1]",,,,,,"{""mixingcoeff"":0,""confidence"":100}",mixed_0.75_Bird_5910_Deer_159.png,rerun_rate_mixture,,Bird,Deer,0.75,5910.0,159.0,Bird_5910_Deer_159.png
310,357,multiple-slider,6,109289,25n9n9nl8kc55sj,633dba58fdd310c8d2d6d7e5,2,13081.30000001192,,,,"[0,1]",,,,,,"{""mixingcoeff"":64,""confidence"":91}",mixed_0.1_Airplane_6712_Horse_826.png,rate_mixture,,Airplane,Horse,0.1,6712.0,826.0,Airplane_6712_Horse_826.png
311,358,multiple-slider,7,117706,25n9n9nl8kc55sj,633dba58fdd310c8d2d6d7e5,2,8413.0,,,,"[0,1]",,,,,,"{""mixingcoeff"":44,""confidence"":66}",mixed_0.25_Bird_3003_Dog_7124.png,rate_mixture,,Bird,Dog,0.25,3003.0,7124.0,Bird_3003_Dog_7124.png
312,359,multiple-slider,8,126843,25n9n9nl8kc55sj,633dba58fdd310c8d2d6d7e5,2,9133.200000047684,,,,"[0,1]",,,,,,"{""mixingcoeff"":18,""confidence"":71}",mixed_0.25_Frog_5936_Truck_545.png,rate_mixture,,Frog,Truck,0.25,5936.0,545.0,Frog_5936_Truck_545.png
313,360,multiple-slider,9,133714,25n9n9nl8kc55sj,633dba58fdd310c8d2d6d7e5,2,6866.899999976158,,,,"[0,1]",,,,,,"{""mixingcoeff"":20,""confidence"":85}",mixed_0.75_Dog_514_Truck_2382.png,rate_mixture,,Dog,Truck,0.75,514.0,2382.0,Dog_514_Truck_2382.png
314,361,multiple-slider,10,141000,25n9n9nl8kc55sj,633dba58fdd310c8d2d6d7e5,2,7281.699999988079,,,,"[0,1]",,,,,,"{""mixingcoeff"":52,""confidence"":83}",mixed_0.5_Airplane_2109_Ship_4869.png,rate_mixture,,Airplane,Ship,0.5,2109.0,4869.0,Airplane_2109_Ship_4869.png
315,362,multiple-slider,11,147059,25n9n9nl8kc55sj,633dba58fdd310c8d2d6d7e5,2,6054.700000047684,,,,"[0,1]",,,,,,"{""mixingcoeff"":6,""confidence"":92}",mixed_0.75_Automobile_3647_Dog_3808.png,rate_mixture,,Automobile,Dog,0.75,3647.0,3808.0,Automobile_3647_Dog_3808.png
316,363,multiple-slider,12,162009,25n9n9nl8kc55sj,633dba58fdd310c8d2d6d7e5,2,14946.700000047684,,,,"[0,1]",,,,,,"{""mixingcoeff"":87,""confidence"":77}",mixed_0.25_Deer_8861_Truck_285.png,rate_mixture,,Deer,Truck,0.25,8861.0,285.0,Deer_8861_Truck_285.png
317,364,multiple-slider,13,169588,25n9n9nl8kc55sj,633dba58fdd310c8d2d6d7e5,2,7574.099999964237,,,,"[0,1]",,,,,,"{""mixingcoeff"":13,""confidence"":85}",mixed_0.9_Deer_3952_Truck_8652.png,rate_mixture,,Deer,Truck,0.9,3952.0,8652.0,Deer_3952_Truck_8652.png
318,365,multiple-slider,14,176688,25n9n9nl8kc55sj,633dba58fdd310c8d2d6d7e5,2,7095.900000035763,,,,"[0,1]",,,,,,"{""mixingcoeff"":90,""confidence"":93}",mixed_0.1_Automobile_1904_Deer_9840.png,rate_mixture,,Automobile,Deer,0.1,1904.0,9840.0,Automobile_1904_Deer_9840.png
319,366,multiple-slider,15,186769,25n9n9nl8kc55sj,633dba58fdd310c8d2d6d7e5,2,10076.30000001192,,,,"[0,1]",,,,,,"{""mixingcoeff"":17,""confidence"":92}",mixed_0.9_Cat_5578_Ship_3537.png,rate_mixture,,Cat,Ship,0.9,5578.0,3537.0,Cat_5578_Ship_3537.png
320,367,multiple-slider,16,193438,25n9n9nl8kc55sj,633dba58fdd310c8d2d6d7e5,2,6664.399999976158,,,,"[0,1]",,,,,,"{""mixingcoeff"":11,""confidence"":96}",mixed_0.75_Bird_8810_Dog_2472.png,rate_mixture,,Bird,Dog,0.75,8810.0,2472.0,Bird_8810_Dog_2472.png
321,368,multiple-slider,17,200976,25n9n9nl8kc55sj,633dba58fdd310c8d2d6d7e5,2,7534.599999964237,,,,"[0,1]",,,,,,"{""mixingcoeff"":11,""confidence"":76}",mixed_0.75_Airplane_9273_Dog_9257.png,rate_mixture,,Airplane,Dog,0.75,9273.0,9257.0,Airplane_9273_Dog_9257.png
322,369,multiple-slider,18,206411,25n9n9nl8kc55sj,633dba58fdd310c8d2d6d7e5,2,5430.600000023842,,,,"[0,1]",,,,,,"{""mixingcoeff"":88,""confidence"":78}",mixed_0.5_Airplane_8572_Automobile_2875.png,rate_mixture,,Airplane,Automobile,0.5,8572.0,2875.0,Airplane_8572_Automobile_2875.png
323,370,multiple-slider,19,213530,25n9n9nl8kc55sj,633dba58fdd310c8d2d6d7e5,2,7114.699999988079,,,,"[0,1]",,,,,,"{""mixingcoeff"":18,""confidence"":87}",mixed_0.75_Automobile_1930_Bird_4690.png,rate_mixture,,Automobile,Bird,0.75,1930.0,4690.0,Automobile_1930_Bird_4690.png
324,371,multiple-slider,20,221268,25n9n9nl8kc55sj,633dba58fdd310c8d2d6d7e5,2,7733.900000035763,,,,"[0,1]",,,,,,"{""mixingcoeff"":22,""confidence"":80}",mixed_0.9_Cat_2963_Horse_9331.png,rate_mixture,,Cat,Horse,0.9,2963.0,9331.0,Cat_2963_Horse_9331.png
325,372,multiple-slider,21,227546,25n9n9nl8kc55sj,633dba58fdd310c8d2d6d7e5,2,6272.899999976158,,,,"[0,1]",,,,,,"{""mixingcoeff"":66,""confidence"":62}",mixed_0.1_Airplane_1319_Ship_3829.png,rate_mixture,,Airplane,Ship,0.1,1319.0,3829.0,Airplane_1319_Ship_3829.png
326,373,multiple-slider,22,233824,25n9n9nl8kc55sj,633dba58fdd310c8d2d6d7e5,2,6273.5,,,,"[0,1]",,,,,,"{""mixingcoeff"":90,""confidence"":57}",mixed_0.1_Airplane_1090_Cat_646.png,rate_mixture,,Airplane,Cat,0.1,1090.0,646.0,Airplane_1090_Cat_646.png
327,374,multiple-slider,23,238979,25n9n9nl8kc55sj,633dba58fdd310c8d2d6d7e5,2,5150.699999988079,,,,"[0,1]",,,,,,"{""mixingcoeff"":88,""confidence"":63}",mixed_0.25_Airplane_7851_Deer_1522.png,rate_mixture,,Airplane,Deer,0.25,7851.0,1522.0,Airplane_7851_Deer_1522.png
328,375,multiple-slider,24,244280,25n9n9nl8kc55sj,633dba58fdd310c8d2d6d7e5,2,5297.0,,,,"[0,1]",,,,,,"{""mixingcoeff"":9,""confidence"":35}",mixed_0.75_Airplane_4374_Frog_927.png,rate_mixture,,Airplane,Frog,0.75,4374.0,927.0,Airplane_4374_Frog_927.png
329,376,multiple-slider,25,250002,25n9n9nl8kc55sj,633dba58fdd310c8d2d6d7e5,2,5718.100000023842,,,,"[0,1]",,,,,,"{""mixingcoeff"":94,""confidence"":81}",mixed_0.25_Airplane_5475_Truck_9817.png,rate_mixture,,Airplane,Truck,0.25,5475.0,9817.0,Airplane_5475_Truck_9817.png
330,377,multiple-slider,26,254810,25n9n9nl8kc55sj,633dba58fdd310c8d2d6d7e5,2,4804.0,,,,"[0,1]",,,,,,"{""mixingcoeff"":92,""confidence"":76}",mixed_0.1_Airplane_52_Frog_3640.png,rate_mixture,,Airplane,Frog,0.1,52.0,3640.0,Airplane_52_Frog_3640.png
331,378,multiple-slider,27,260317,25n9n9nl8kc55sj,633dba58fdd310c8d2d6d7e5,2,5503.0,,,,"[0,1]",,,,,,"{""mixingcoeff"":89,""confidence"":74}",mixed_0.5_Automobile_7276_Truck_9382.png,rate_mixture,,Automobile,Truck,0.5,7276.0,9382.0,Automobile_7276_Truck_9382.png
332,379,multiple-slider,28,264960,25n9n9nl8kc55sj,633dba58fdd310c8d2d6d7e5,2,4638.300000011921,,,,"[0,1]",,,,,,"{""mixingcoeff"":92,""confidence"":76}",mixed_0.1_Airplane_3820_Deer_5786.png,rate_mixture,,Airplane,Deer,0.1,3820.0,5786.0,Airplane_3820_Deer_5786.png
333,380,multiple-slider,29,269424,25n9n9nl8kc55sj,633dba58fdd310c8d2d6d7e5,2,4460.600000023842,,,,"[0,1]",,,,,,"{""mixingcoeff"":98,""confidence"":80}",mixed_0.25_Bird_9873_Horse_8733.png,rate_mixture,,Bird,Horse,0.25,9873.0,8733.0,Bird_9873_Horse_8733.png
334,381,multiple-slider,30,275809,25n9n9nl8kc55sj,633dba58fdd310c8d2d6d7e5,2,6380.5,,,,"[0,1]",,,,,,"{""mixingcoeff"":19,""confidence"":12}",mixed_0.75_Ship_2135_Truck_7844.png,rate_mixture,,Ship,Truck,0.75,2135.0,7844.0,Ship_2135_Truck_7844.png
335,382,multiple-slider,31,282614,25n9n9nl8kc55sj,633dba58fdd310c8d2d6d7e5,2,6801.399999976158,,,,"[0,1]",,,,,,"{""mixingcoeff"":11,""confidence"":90}",mixed_0.9_Deer_4159_Dog_2003.png,rate_mixture,,Deer,Dog,0.9,4159.0,2003.0,Deer_4159_Dog_2003.png
336,383,multiple-slider,32,289193,25n9n9nl8kc55sj,633dba58fdd310c8d2d6d7e5,2,6575.399999976158,,,,"[0,1]",,,,,,"{""mixingcoeff"":58,""confidence"":91}",mixed_0.75_Automobile_3149_Frog_710.png,rate_mixture,,Automobile,Frog,0.75,3149.0,710.0,Automobile_3149_Frog_710.png
337,384,multiple-slider,33,294561,25n9n9nl8kc55sj,633dba58fdd310c8d2d6d7e5,2,5362.900000035763,,,,"[0,1]",,,,,,"{""mixingcoeff"":16,""confidence"":90}",mixed_0.9_Bird_7951_Dog_7787.png,rate_mixture,,Bird,Dog,0.9,7951.0,7787.0,Bird_7951_Dog_7787.png
338,385,multiple-slider,34,299927,25n9n9nl8kc55sj,633dba58fdd310c8d2d6d7e5,2,5361.900000035763,,,,"[0,1]",,,,,,"{""mixingcoeff"":82,""confidence"":92}",mixed_0.25_Bird_3604_Dog_9348.png,rate_mixture,,Bird,Dog,0.25,3604.0,9348.0,Bird_3604_Dog_9348.png
339,386,multiple-slider,35,306153,25n9n9nl8kc55sj,633dba58fdd310c8d2d6d7e5,2,6222.399999976158,,,,"[0,1]",,,,,,"{""mixingcoeff"":94,""confidence"":75}",mixed_0.1_Automobile_6431_Truck_6193.png,rate_mixture,,Automobile,Truck,0.1,6431.0,6193.0,Automobile_6431_Truck_6193.png
340,387,multiple-slider,36,311592,25n9n9nl8kc55sj,633dba58fdd310c8d2d6d7e5,2,5433.5,,,,"[0,1]",,,,,,"{""mixingcoeff"":80,""confidence"":95}",mixed_0.25_Frog_3936_Ship_1510.png,rate_mixture,,Frog,Ship,0.25,3936.0,1510.0,Frog_3936_Ship_1510.png
341,388,multiple-slider,37,317244,25n9n9nl8kc55sj,633dba58fdd310c8d2d6d7e5,2,5648.599999964237,,,,"[0,1]",,,,,,"{""mixingcoeff"":71,""confidence"":92}",mixed_0.5_Bird_843_Horse_5795.png,rate_mixture,,Bird,Horse,0.5,843.0,5795.0,Bird_843_Horse_5795.png
342,389,multiple-slider,38,323616,25n9n9nl8kc55sj,633dba58fdd310c8d2d6d7e5,2,6367.700000047684,,,,"[0,1]",,,,,,"{""mixingcoeff"":6,""confidence"":95}",mixed_0.75_Automobile_8155_Bird_837.png,rate_mixture,,Automobile,Bird,0.75,8155.0,837.0,Automobile_8155_Bird_837.png
343,390,multiple-slider,39,329465,25n9n9nl8kc55sj,633dba58fdd310c8d2d6d7e5,2,5844.699999988079,,,,"[0,1]",,,,,,"{""mixingcoeff"":10,""confidence"":34}",mixed_0.9_Bird_3721_Cat_332.png,rate_mixture,,Bird,Cat,0.9,3721.0,332.0,Bird_3721_Cat_332.png
344,391,multiple-slider,40,336585,25n9n9nl8kc55sj,633dba58fdd310c8d2d6d7e5,2,7115.799999952316,,,,"[0,1]",,,,,,"{""mixingcoeff"":77,""confidence"":95}",mixed_0.5_Dog_9337_Truck_253.png,rate_mixture,,Dog,Truck,0.5,9337.0,253.0,Dog_9337_Truck_253.png
345,392,multiple-slider,41,343046,25n9n9nl8kc55sj,633dba58fdd310c8d2d6d7e5,2,6455.5,,,,"[0,1]",,,,,,"{""mixingcoeff"":13,""confidence"":92}",mixed_0.9_Automobile_6104_Horse_5601.png,rate_mixture,,Automobile,Horse,0.9,6104.0,5601.0,Automobile_6104_Horse_5601.png
346,393,multiple-slider,42,350604,25n9n9nl8kc55sj,633dba58fdd310c8d2d6d7e5,2,7554.300000011921,,,,"[0,1]",,,,,,"{""mixingcoeff"":10,""confidence"":85}",mixed_0.9_Cat_7879_Frog_8038.png,rate_mixture,,Cat,Frog,0.9,7879.0,8038.0,Cat_7879_Frog_8038.png
347,394,multiple-slider,43,361446,25n9n9nl8kc55sj,633dba58fdd310c8d2d6d7e5,2,10838.299999952316,,,,"[0,1]",,,,,,"{""mixingcoeff"":78,""confidence"":93}",mixed_0.5_Cat_4710_Deer_7744.png,rate_mixture,,Cat,Deer,0.5,4710.0,7744.0,Cat_4710_Deer_7744.png
348,395,multiple-slider,44,366926,25n9n9nl8kc55sj,633dba58fdd310c8d2d6d7e5,2,5475.300000011921,,,,"[0,1]",,,,,,"{""mixingcoeff"":79,""confidence"":94}",mixed_0.1_Airplane_9841_Dog_5101.png,rate_mixture,,Airplane,Dog,0.1,9841.0,5101.0,Airplane_9841_Dog_5101.png
349,396,multiple-slider,45,371117,25n9n9nl8kc55sj,633dba58fdd310c8d2d6d7e5,2,4186.899999976158,,,,"[0,1]",,,,,,"{""mixingcoeff"":70,""confidence"":94}",mixed_0.5_Cat_5490_Frog_4066.png,rate_mixture,,Cat,Frog,0.5,5490.0,4066.0,Cat_5490_Frog_4066.png
350,397,multiple-slider,46,376246,25n9n9nl8kc55sj,633dba58fdd310c8d2d6d7e5,2,5124.300000011921,,,,"[0,1]",,,,,,"{""mixingcoeff"":9,""confidence"":90}",mixed_0.9_Dog_3613_Ship_348.png,rate_mixture,,Dog,Ship,0.9,3613.0,348.0,Dog_3613_Ship_348.png
351,398,multiple-slider,47,381479,25n9n9nl8kc55sj,633dba58fdd310c8d2d6d7e5,2,5229.100000023842,,,,"[0,1]",,,,,,"{""mixingcoeff"":58,""confidence"":60}",mixed_0.75_Airplane_3782_Deer_5187.png,rate_mixture,,Airplane,Deer,0.75,3782.0,5187.0,Airplane_3782_Deer_5187.png
352,399,multiple-slider,48,388451,25n9n9nl8kc55sj,633dba58fdd310c8d2d6d7e5,2,6967.5,,,,"[0,1]",,,,,,"{""mixingcoeff"":10,""confidence"":80}",mixed_0.9_Cat_9141_Horse_8514.png,rate_mixture,,Cat,Horse,0.9,9141.0,8514.0,Cat_9141_Horse_8514.png
353,400,multiple-slider,49,393675,25n9n9nl8kc55sj,633dba58fdd310c8d2d6d7e5,2,5219.100000023842,,,,"[0,1]",,,,,,"{""mixingcoeff"":91,""confidence"":63}",mixed_0.1_Horse_6099_Ship_4787.png,rate_mixture,,Horse,Ship,0.1,6099.0,4787.0,Horse_6099_Ship_4787.png
354,401,multiple-slider,50,399374,25n9n9nl8kc55sj,633dba58fdd310c8d2d6d7e5,2,5694.5,,,,"[0,1]",,,,,,"{""mixingcoeff"":16,""confidence"":54}",mixed_0.9_Horse_8535_Truck_5063.png,rate_mixture,,Horse,Truck,0.9,8535.0,5063.0,Horse_8535_Truck_5063.png
355,402,multiple-slider,51,403893,25n9n9nl8kc55sj,633dba58fdd310c8d2d6d7e5,2,4515.399999976158,,,,"[0,1]",,,,,,"{""mixingcoeff"":20,""confidence"":37}",mixed_0.75_Cat_7475_Horse_1478.png,rate_mixture,,Cat,Horse,0.75,7475.0,1478.0,Cat_7475_Horse_1478.png
356,403,multiple-slider,52,408901,25n9n9nl8kc55sj,633dba58fdd310c8d2d6d7e5,2,5003.099999964237,,,,"[0,1]",,,,,,"{""mixingcoeff"":92,""confidence"":71}",mixed_0.1_Cat_5313_Frog_5865.png,rate_mixture,,Cat,Frog,0.1,5313.0,5865.0,Cat_5313_Frog_5865.png
357,404,multiple-slider,53,416070,25n9n9nl8kc55sj,633dba58fdd310c8d2d6d7e5,2,7164.900000035763,,,,"[0,1]",,,,,,"{""mixingcoeff"":93,""confidence"":96}",mixed_0.1_Airplane_9951_Bird_7944.png,rate_mixture,,Airplane,Bird,0.1,9951.0,7944.0,Airplane_9951_Bird_7944.png
358,405,multiple-slider,54,421840,25n9n9nl8kc55sj,633dba58fdd310c8d2d6d7e5,2,5765.0,,,,"[0,1]",,,,,,"{""mixingcoeff"":79,""confidence"":92}",mixed_0.1_Airplane_97_Ship_1843.png,rate_mixture,,Airplane,Ship,0.1,97.0,1843.0,Airplane_97_Ship_1843.png
359,406,multiple-slider,55,426377,25n9n9nl8kc55sj,633dba58fdd310c8d2d6d7e5,2,4532.699999988079,,,,"[0,1]",,,,,,"{""mixingcoeff"":56,""confidence"":55}",mixed_0.5_Cat_8231_Truck_9492.png,rate_mixture,,Cat,Truck,0.5,8231.0,9492.0,Cat_8231_Truck_9492.png
360,407,multiple-slider,56,430585,25n9n9nl8kc55sj,633dba58fdd310c8d2d6d7e5,2,4203.800000011921,,,,"[0,1]",,,,,,"{""mixingcoeff"":58,""confidence"":54}",mixed_0.25_Frog_7945_Ship_8189.png,rate_mixture,,Frog,Ship,0.25,7945.0,8189.0,Frog_7945_Ship_8189.png
361,408,multiple-slider,57,435382,25n9n9nl8kc55sj,633dba58fdd310c8d2d6d7e5,2,4793.199999988079,,,,"[0,1]",,,,,,"{""mixingcoeff"":69,""confidence"":59}",mixed_0.25_Bird_2011_Frog_8923.png,rate_mixture,,Bird,Frog,0.25,2011.0,8923.0,Bird_2011_Frog_8923.png
362,409,multiple-slider,58,440920,25n9n9nl8kc55sj,633dba58fdd310c8d2d6d7e5,2,5534.800000011921,,,,"[0,1]",,,,,,"{""mixingcoeff"":89,""confidence"":70}",mixed_0.5_Airplane_7880_Automobile_5181.png,rate_mixture,,Airplane,Automobile,0.5,7880.0,5181.0,Airplane_7880_Automobile_5181.png
363,410,multiple-slider,59,445379,25n9n9nl8kc55sj,633dba58fdd310c8d2d6d7e5,2,4454.100000023842,,,,"[0,1]",,,,,,"{""mixingcoeff"":59,""confidence"":54}",mixed_0.75_Frog_4291_Truck_3344.png,rate_mixture,,Frog,Truck,0.75,4291.0,3344.0,Frog_4291_Truck_3344.png
364,411,multiple-slider,60,450632,25n9n9nl8kc55sj,633dba58fdd310c8d2d6d7e5,2,5248.800000011921,,,,"[0,1]",,,,,,"{""mixingcoeff"":93,""confidence"":73}",mixed_0.1_Frog_1079_Horse_4214.png,rate_mixture,,Frog,Horse,0.1,1079.0,4214.0,Frog_1079_Horse_4214.png
365,412,multiple-slider,61,454832,25n9n9nl8kc55sj,633dba58fdd310c8d2d6d7e5,2,4194.800000011921,,,,"[0,1]",,,,,,"{""mixingcoeff"":90,""confidence"":81}",mixed_0.25_Automobile_1378_Bird_5708.png,rate_mixture,,Automobile,Bird,0.25,1378.0,5708.0,Automobile_1378_Bird_5708.png
366,413,multiple-slider,62,461235,25n9n9nl8kc55sj,633dba58fdd310c8d2d6d7e5,2,6398.600000023842,,,,"[0,1]",,,,,,"{""mixingcoeff"":9,""confidence"":29}",mixed_0.9_Dog_3083_Frog_4859.png,rate_mixture,,Dog,Frog,0.9,3083.0,4859.0,Dog_3083_Frog_4859.png
367,414,multiple-slider,63,466252,25n9n9nl8kc55sj,633dba58fdd310c8d2d6d7e5,2,5011.800000011921,,,,"[0,1]",,,,,,"{""mixingcoeff"":13,""confidence"":35}",mixed_0.9_Automobile_7243_Ship_8875.png,rate_mixture,,Automobile,Ship,0.9,7243.0,8875.0,Automobile_7243_Ship_8875.png
368,415,multiple-slider,64,472675,25n9n9nl8kc55sj,633dba58fdd310c8d2d6d7e5,2,6419.600000023842,,,,"[0,1]",,,,,,"{""mixingcoeff"":90,""confidence"":73}",mixed_0.1_Bird_195_Deer_7239.png,rate_mixture,,Bird,Deer,0.1,195.0,7239.0,Bird_195_Deer_7239.png
369,416,multiple-slider,65,478509,25n9n9nl8kc55sj,633dba58fdd310c8d2d6d7e5,2,5829.600000023842,,,,"[0,1]",,,,,,"{""mixingcoeff"":76,""confidence"":74}",mixed_0.5_Deer_5885_Truck_8054.png,rate_mixture,,Deer,Truck,0.5,5885.0,8054.0,Deer_5885_Truck_8054.png
370,417,multiple-slider,66,482978,25n9n9nl8kc55sj,633dba58fdd310c8d2d6d7e5,2,4465.199999988079,,,,"[0,1]",,,,,,"{""mixingcoeff"":60,""confidence"":53}",mixed_0.1_Airplane_1319_Ship_3829.png,rerun_rate_mixture,,Airplane,Ship,0.1,1319.0,3829.0,Airplane_1319_Ship_3829.png
371,418,multiple-slider,67,487277,25n9n9nl8kc55sj,633dba58fdd310c8d2d6d7e5,2,4294.299999952316,,,,"[0,1]",,,,,,"{""mixingcoeff"":97,""confidence"":88}",mixed_0.1_Airplane_52_Frog_3640.png,rerun_rate_mixture,,Airplane,Frog,0.1,52.0,3640.0,Airplane_52_Frog_3640.png
372,426,multiple-slider,6,293418,f6o70fxh9t7aqrg,633dba58fdd310c8d2d6d7e5,3,39187.0,,,,"[0,1]",,,,,,"{""mixingcoeff"":93,""confidence"":78}",mixed_0.1_Horse_5250_Truck_8054.png,rate_mixture,,Horse,Truck,0.1,5250.0,8054.0,Horse_5250_Truck_8054.png
373,427,multiple-slider,7,305684,f6o70fxh9t7aqrg,633dba58fdd310c8d2d6d7e5,3,12262.0,,,,"[0,1]",,,,,,"{""mixingcoeff"":0,""confidence"":97}",mixed_0.9_Airplane_9931_Dog_4005.png,rate_mixture,,Airplane,Dog,0.9,9931.0,4005.0,Airplane_9931_Dog_4005.png
374,428,multiple-slider,8,320196,f6o70fxh9t7aqrg,633dba58fdd310c8d2d6d7e5,3,14509.0,,,,"[0,1]",,,,,,"{""mixingcoeff"":96,""confidence"":94}",mixed_0.25_Horse_4354_Ship_6758.png,rate_mixture,,Horse,Ship,0.25,4354.0,6758.0,Horse_4354_Ship_6758.png
375,429,multiple-slider,9,332234,f6o70fxh9t7aqrg,633dba58fdd310c8d2d6d7e5,3,12034.199999928474,,,,"[0,1]",,,,,,"{""mixingcoeff"":92,""confidence"":88}",mixed_0.1_Frog_9450_Ship_3106.png,rate_mixture,,Frog,Ship,0.1,9450.0,3106.0,Frog_9450_Ship_3106.png
376,430,multiple-slider,10,340413,f6o70fxh9t7aqrg,633dba58fdd310c8d2d6d7e5,3,8174.700000047684,,,,"[0,1]",,,,,,"{""mixingcoeff"":100,""confidence"":100}",mixed_0.1_Bird_6427_Frog_5060.png,rate_mixture,,Bird,Frog,0.1,6427.0,5060.0,Bird_6427_Frog_5060.png
377,431,multiple-slider,11,352140,f6o70fxh9t7aqrg,633dba58fdd310c8d2d6d7e5,3,11724.299999952316,,,,"[0,1]",,,,,,"{""mixingcoeff"":76,""confidence"":68}",mixed_0.1_Horse_5153_Truck_8985.png,rate_mixture,,Horse,Truck,0.1,5153.0,8985.0,Horse_5153_Truck_8985.png
378,432,multiple-slider,12,362134,f6o70fxh9t7aqrg,633dba58fdd310c8d2d6d7e5,3,9990.700000047684,,,,"[0,1]",,,,,,"{""mixingcoeff"":93,""confidence"":81}",mixed_0.25_Cat_6339_Frog_2709.png,rate_mixture,,Cat,Frog,0.25,6339.0,2709.0,Cat_6339_Frog_2709.png
379,433,multiple-slider,13,373408,f6o70fxh9t7aqrg,633dba58fdd310c8d2d6d7e5,3,11271.0,,,,"[0,1]",,,,,,"{""mixingcoeff"":6,""confidence"":91}",mixed_0.9_Airplane_7877_Horse_3734.png,rate_mixture,,Airplane,Horse,0.9,7877.0,3734.0,Airplane_7877_Horse_3734.png
380,434,multiple-slider,14,391847,f6o70fxh9t7aqrg,633dba58fdd310c8d2d6d7e5,3,18434.200000047684,,,,"[0,1]",,,,,,"{""mixingcoeff"":50,""confidence"":64}",mixed_0.25_Dog_9406_Ship_8013.png,rate_mixture,,Dog,Ship,0.25,9406.0,8013.0,Dog_9406_Ship_8013.png
381,435,multiple-slider,15,401601,f6o70fxh9t7aqrg,633dba58fdd310c8d2d6d7e5,3,9749.5,,,,"[0,1]",,,,,,"{""mixingcoeff"":93,""confidence"":84}",mixed_0.1_Dog_3107_Truck_719.png,rate_mixture,,Dog,Truck,0.1,3107.0,719.0,Dog_3107_Truck_719.png
382,436,multiple-slider,16,418781,f6o70fxh9t7aqrg,633dba58fdd310c8d2d6d7e5,3,17176.799999952316,,,,"[0,1]",,,,,,"{""mixingcoeff"":10,""confidence"":84}",mixed_0.75_Frog_6235_Ship_1471.png,rate_mixture,,Frog,Ship,0.75,6235.0,1471.0,Frog_6235_Ship_1471.png
383,437,multiple-slider,17,429907,f6o70fxh9t7aqrg,633dba58fdd310c8d2d6d7e5,3,11122.5,,,,"[0,1]",,,,,,"{""mixingcoeff"":50,""confidence"":57}",mixed_0.75_Automobile_9520_Bird_3604.png,rate_mixture,,Automobile,Bird,0.75,9520.0,3604.0,Automobile_9520_Bird_3604.png
384,438,multiple-slider,18,437351,f6o70fxh9t7aqrg,633dba58fdd310c8d2d6d7e5,3,7440.200000047684,,,,"[0,1]",,,,,,"{""mixingcoeff"":91,""confidence"":90}",mixed_0.25_Airplane_854_Automobile_8579.png,rate_mixture,,Airplane,Automobile,0.25,854.0,8579.0,Airplane_854_Automobile_8579.png
385,439,multiple-slider,19,444683,f6o70fxh9t7aqrg,633dba58fdd310c8d2d6d7e5,3,7329.0,,,,"[0,1]",,,,,,"{""mixingcoeff"":0,""confidence"":96}",mixed_0.9_Deer_1128_Ship_1044.png,rate_mixture,,Deer,Ship,0.9,1128.0,1044.0,Deer_1128_Ship_1044.png
386,440,multiple-slider,20,452851,f6o70fxh9t7aqrg,633dba58fdd310c8d2d6d7e5,3,8165.0,,,,"[0,1]",,,,,,"{""mixingcoeff"":10,""confidence"":65}",mixed_0.75_Dog_7636_Ship_5531.png,rate_mixture,,Dog,Ship,0.75,7636.0,5531.0,Dog_7636_Ship_5531.png
387,441,multiple-slider,21,460029,f6o70fxh9t7aqrg,633dba58fdd310c8d2d6d7e5,3,7174.899999976158,,,,"[0,1]",,,,,,"{""mixingcoeff"":5,""confidence"":87}",mixed_0.75_Deer_100_Truck_381.png,rate_mixture,,Deer,Truck,0.75,100.0,381.0,Deer_100_Truck_381.png
388,442,multiple-slider,22,471725,f6o70fxh9t7aqrg,633dba58fdd310c8d2d6d7e5,3,11692.900000095367,,,,"[0,1]",,,,,,"{""mixingcoeff"":93,""confidence"":71}",mixed_0.1_Deer_8574_Frog_299.png,rate_mixture,,Deer,Frog,0.1,8574.0,299.0,Deer_8574_Frog_299.png
