,index,trial_type,trial_index,time_elapsed,subject,study_id,condition,rt,url,view_history,response,question_order,success,timeout,failed_images,failed_audio,failed_video,final_value,start_value,task,class_pair,starting_value,filename
0,6,reconstruction,6,295679,o5bv7eyn1ckp7ve,633e12745ad6680bd85cd356,2,23103.099999904636,,,,,,,,,,0.6,0.1,select_create,Bird_9624_Deer_9585,0.1,
1,7,reconstruction,7,313633,o5bv7eyn1ckp7ve,633e12745ad6680bd85cd356,2,17952.400000095367,,,,,,,,,,0.5,0.1,select_create,Airplane_3497_Ship_8913,0.1,
2,8,reconstruction,8,329993,o5bv7eyn1ckp7ve,633e12745ad6680bd85cd356,2,16358.5,,,,,,,,,,0.4,0.1,select_create,Deer_2786_Dog_8202,0.1,
3,9,reconstruction,9,343132,o5bv7eyn1ckp7ve,633e12745ad6680bd85cd356,2,13138.299999952316,,,,,,,,,,0.5,0.1,select_create,Airplane_8777_Truck_139,0.1,
4,10,reconstruction,10,358382,o5bv7eyn1ckp7ve,633e12745ad6680bd85cd356,2,15248.400000095367,,,,,,,,,,0.4,0.1,select_create,Deer_557_Ship_8226,0.1,
5,11,reconstruction,11,374848,o5bv7eyn1ckp7ve,633e12745ad6680bd85cd356,2,16464.299999952316,,,,,,,,,,0.6000000000000001,0.1,select_create,Cat_7807_Deer_4027,0.1,
6,12,reconstruction,12,385520,o5bv7eyn1ckp7ve,633e12745ad6680bd85cd356,2,10670.799999952316,,,,,,,,,,0.6000000000000001,0.1,select_create,Cat_3023_Frog_4774,0.1,
7,13,reconstruction,13,398920,o5bv7eyn1ckp7ve,633e12745ad6680bd85cd356,2,13398.200000047684,,,,,,,,,,0.6,0.1,select_create,Frog_8963_Truck_1841,0.1,
8,14,reconstruction,14,413424,o5bv7eyn1ckp7ve,633e12745ad6680bd85cd356,2,14502.400000095367,,,,,,,,,,0.5,0.1,select_create,Deer_2260_Horse_9855,0.1,
9,15,reconstruction,15,424650,o5bv7eyn1ckp7ve,633e12745ad6680bd85cd356,2,11224.200000047684,,,,,,,,,,0.4,0.1,select_create,Dog_8869_Horse_5096,0.1,
10,16,reconstruction,16,432690,o5bv7eyn1ckp7ve,633e12745ad6680bd85cd356,2,8038.5,,,,,,,,,,0.5,0.1,select_create,Horse_5096_Truck_9312,0.1,
11,17,reconstruction,17,441478,o5bv7eyn1ckp7ve,633e12745ad6680bd85cd356,2,8786.700000047684,,,,,,,,,,0.4,0.1,select_create,Horse_1602_Ship_2527,0.1,
12,18,reconstruction,18,460288,o5bv7eyn1ckp7ve,633e12745ad6680bd85cd356,2,18808.29999995232,,,,,,,,,,0.5,0.1,select_create,Automobile_5456_Frog_7606,0.1,
13,19,reconstruction,19,475242,o5bv7eyn1ckp7ve,633e12745ad6680bd85cd356,2,14952.600000143051,,,,,,,,,,0.5000000000000001,0.1,select_create,Dog_810_Ship_582,0.1,
14,20,reconstruction,20,492012,o5bv7eyn1ckp7ve,633e12745ad6680bd85cd356,2,16768.60000014305,,,,,,,,,,0.5,0.1,select_create,Airplane_9724_Automobile_6577,0.1,
15,21,reconstruction,21,502016,o5bv7eyn1ckp7ve,633e12745ad6680bd85cd356,2,10002.5,,,,,,,,,,0.6000000000000001,0.1,select_create,Automobile_887_Bird_8384,0.1,
16,22,reconstruction,22,514345,o5bv7eyn1ckp7ve,633e12745ad6680bd85cd356,2,12326.699999809263,,,,,,,,,,0.5000000000000001,0.1,select_create,Automobile_3527_Frog_300,0.1,
17,23,reconstruction,23,527103,o5bv7eyn1ckp7ve,633e12745ad6680bd85cd356,2,12756.5,,,,,,,,,,0.4,0.1,select_create,Dog_6065_Frog_772,0.1,
18,24,reconstruction,24,541605,o5bv7eyn1ckp7ve,633e12745ad6680bd85cd356,2,14500.099999904633,,,,,,,,,,0.6,0.1,select_create,Automobile_104_Horse_2652,0.1,
19,25,reconstruction,25,554190,o5bv7eyn1ckp7ve,633e12745ad6680bd85cd356,2,12584.5,,,,,,,,,,0.6,0.1,select_create,Bird_2977_Truck_626,0.1,
20,26,reconstruction,26,582797,o5bv7eyn1ckp7ve,633e12745ad6680bd85cd356,2,28604.79999995232,,,,,,,,,,0.7000000000000001,0.1,select_create,Airplane_7987_Dog_4906,0.1,
21,27,reconstruction,27,625299,o5bv7eyn1ckp7ve,633e12745ad6680bd85cd356,2,42500.69999980927,,,,,,,,,,0.4000000000000001,0.1,select_create,Deer_7039_Frog_1452,0.1,
22,28,reconstruction,28,642206,o5bv7eyn1ckp7ve,633e12745ad6680bd85cd356,2,16906.5,,,,,,,,,,0.6000000000000001,0.1,select_create,Cat_8420_Deer_5252,0.1,
23,29,reconstruction,29,655554,o5bv7eyn1ckp7ve,633e12745ad6680bd85cd356,2,13346.799999952316,,,,,,,,,,0.5,0.1,select_create,Horse_7342_Truck_6795,0.1,
24,30,reconstruction,30,668174,o5bv7eyn1ckp7ve,633e12745ad6680bd85cd356,2,12617.900000095367,,,,,,,,,,0.5,0.1,select_create,Automobile_887_Bird_8384,0.1,
25,31,reconstruction,31,680994,o5bv7eyn1ckp7ve,633e12745ad6680bd85cd356,2,12818.299999952316,,,,,,,,,,0.4,0.1,select_create,Bird_5085_Frog_7066,0.1,
26,32,reconstruction,32,693668,o5bv7eyn1ckp7ve,633e12745ad6680bd85cd356,2,12672.599999904633,,,,,,,,,,0.7000000000000001,0.1,select_create,Cat_9121_Deer_8566,0.1,
27,33,reconstruction,33,704474,o5bv7eyn1ckp7ve,633e12745ad6680bd85cd356,2,10804.200000047684,,,,,,,,,,0.4,0.1,select_create,Frog_3124_Ship_7142,0.1,
28,34,reconstruction,34,717504,o5bv7eyn1ckp7ve,633e12745ad6680bd85cd356,2,13028.800000190737,,,,,,,,,,0.5,0.1,select_create,Automobile_4948_Frog_4405,0.1,
29,35,reconstruction,35,755038,o5bv7eyn1ckp7ve,633e12745ad6680bd85cd356,2,37532.20000004768,,,,,,,,,,0.4,0.1,select_create,Dog_3748_Horse_5690,0.1,
30,36,reconstruction,36,765491,o5bv7eyn1ckp7ve,633e12745ad6680bd85cd356,2,10450.200000047684,,,,,,,,,,0.5000000000000001,0.1,rerun_select_create,Cat_7807_Deer_4027,0.1,
31,37,reconstruction,37,778223,o5bv7eyn1ckp7ve,633e12745ad6680bd85cd356,2,12730.5,,,,,,,,,,0.6,0.1,rerun_select_create,Horse_5096_Truck_9312,0.1,
32,45,reconstruction,6,262125,dw981o0alt3z4bw,633e12745ad6680bd85cd356,5,47622.0,,,,,,,,,,0.6000000000000001,0.9,select_create,Horse_6044_Ship_7600,0.9,
33,46,reconstruction,7,316328,dw981o0alt3z4bw,633e12745ad6680bd85cd356,5,54202.0,,,,,,,,,,0.8,0.9,select_create,Frog_4161_Truck_1439,0.9,
34,47,reconstruction,8,372946,dw981o0alt3z4bw,633e12745ad6680bd85cd356,5,56616.0,,,,,,,,,,0.6000000000000001,0.9,select_create,Bird_354_Deer_6507,0.9,
35,48,reconstruction,9,422788,dw981o0alt3z4bw,633e12745ad6680bd85cd356,5,49839.0,,,,,,,,,,0.7000000000000001,0.9,select_create,Airplane_2628_Frog_9653,0.9,
36,49,reconstruction,10,442712,dw981o0alt3z4bw,633e12745ad6680bd85cd356,5,19924.0,,,,,,,,,,0.5000000000000001,0.9,select_create,Horse_5096_Truck_9312,0.9,
37,50,reconstruction,11,471454,dw981o0alt3z4bw,633e12745ad6680bd85cd356,5,28739.0,,,,,,,,,,0.6000000000000001,0.9,select_create,Cat_2422_Truck_6579,0.9,
38,51,reconstruction,12,494330,dw981o0alt3z4bw,633e12745ad6680bd85cd356,5,22874.0,,,,,,,,,,0.5,0.9,select_create,Airplane_2589_Cat_6202,0.9,
39,52,reconstruction,13,514439,dw981o0alt3z4bw,633e12745ad6680bd85cd356,5,20109.0,,,,,,,,,,0.3000000000000001,0.9,select_create,Frog_2865_Horse_7935,0.9,
40,53,reconstruction,14,530155,dw981o0alt3z4bw,633e12745ad6680bd85cd356,5,15714.0,,,,,,,,,,0.6000000000000001,0.9,select_create,Airplane_6069_Horse_578,0.9,
41,54,reconstruction,15,549253,dw981o0alt3z4bw,633e12745ad6680bd85cd356,5,19098.0,,,,,,,,,,0.5000000000000001,0.9,select_create,Airplane_8812_Bird_3076,0.9,
42,55,reconstruction,16,561359,dw981o0alt3z4bw,633e12745ad6680bd85cd356,5,12104.0,,,,,,,,,,0.5000000000000001,0.9,select_create,Airplane_4270_Deer_849,0.9,
43,56,reconstruction,17,577968,dw981o0alt3z4bw,633e12745ad6680bd85cd356,5,16609.0,,,,,,,,,,0.6000000000000001,0.9,select_create,Cat_2175_Dog_8788,0.9,
44,57,reconstruction,18,603900,dw981o0alt3z4bw,633e12745ad6680bd85cd356,5,25930.0,,,,,,,,,,0.3000000000000001,0.9,select_create,Automobile_2813_Truck_8727,0.9,
45,58,reconstruction,19,632646,dw981o0alt3z4bw,633e12745ad6680bd85cd356,5,28744.0,,,,,,,,,,0.3000000000000001,0.9,select_create,Airplane_6057_Deer_9189,0.9,
46,59,reconstruction,20,669554,dw981o0alt3z4bw,633e12745ad6680bd85cd356,5,36906.0,,,,,,,,,,0.5000000000000001,0.9,select_create,Deer_4114_Horse_1119,0.9,
47,60,reconstruction,21,680914,dw981o0alt3z4bw,633e12745ad6680bd85cd356,5,11359.0,,,,,,,,,,0.5000000000000001,0.9,select_create,Airplane_258_Truck_744,0.9,
48,61,reconstruction,22,687767,dw981o0alt3z4bw,633e12745ad6680bd85cd356,5,6851.0,,,,,,,,,,0.7000000000000001,0.9,select_create,Bird_7508_Frog_7690,0.9,
49,62,reconstruction,23,715084,dw981o0alt3z4bw,633e12745ad6680bd85cd356,5,27315.0,,,,,,,,,,0.5,0.9,select_create,Airplane_6491_Frog_8781,0.9,
50,63,reconstruction,24,724239,dw981o0alt3z4bw,633e12745ad6680bd85cd356,5,9154.0,,,,,,,,,,0.6000000000000001,0.9,select_create,Bird_1043_Horse_5464,0.9,
51,64,reconstruction,25,741465,dw981o0alt3z4bw,633e12745ad6680bd85cd356,5,17224.0,,,,,,,,,,0.5000000000000001,0.9,select_create,Dog_1818_Truck_5938,0.9,
52,65,reconstruction,26,762962,dw981o0alt3z4bw,633e12745ad6680bd85cd356,5,21494.0,,,,,,,,,,0.6000000000000001,0.9,select_create,Cat_6705_Frog_783,0.9,
53,66,reconstruction,27,778431,dw981o0alt3z4bw,633e12745ad6680bd85cd356,5,15469.0,,,,,,,,,,0.5000000000000001,0.9,select_create,Horse_5558_Ship_7706,0.9,
54,67,reconstruction,28,786563,dw981o0alt3z4bw,633e12745ad6680bd85cd356,5,8130.0,,,,,,,,,,0.4000000000000001,0.9,select_create,Cat_9310_Ship_9491,0.9,
55,68,reconstruction,29,799213,dw981o0alt3z4bw,633e12745ad6680bd85cd356,5,12649.0,,,,,,,,,,0.5,0.9,select_create,Airplane_2200_Ship_1281,0.9,
56,69,reconstruction,30,810866,dw981o0alt3z4bw,633e12745ad6680bd85cd356,5,11651.0,,,,,,,,,,0.5000000000000001,0.9,select_create,Bird_5819_Dog_8776,0.9,
57,70,reconstruction,31,825633,dw981o0alt3z4bw,633e12745ad6680bd85cd356,5,14766.0,,,,,,,,,,0.5000000000000001,0.9,select_create,Automobile_7570_Cat_4094,0.9,
58,71,reconstruction,32,838355,dw981o0alt3z4bw,633e12745ad6680bd85cd356,5,12721.0,,,,,,,,,,0.4000000000000001,0.9,select_create,Cat_2285_Frog_5513,0.9,
59,72,reconstruction,33,850811,dw981o0alt3z4bw,633e12745ad6680bd85cd356,5,12454.0,,,,,,,,,,0.3,0.9,select_create,Automobile_1882_Deer_4227,0.9,
60,73,reconstruction,34,864395,dw981o0alt3z4bw,633e12745ad6680bd85cd356,5,13582.0,,,,,,,,,,0.4000000000000001,0.9,select_create,Ship_6691_Truck_5674,0.9,
61,74,reconstruction,35,876729,dw981o0alt3z4bw,633e12745ad6680bd85cd356,5,12332.0,,,,,,,,,,0.4000000000000001,0.9,select_create,Dog_2316_Horse_7086,0.9,
62,75,reconstruction,36,899975,dw981o0alt3z4bw,633e12745ad6680bd85cd356,5,23244.0,,,,,,,,,,0.7000000000000001,0.9,rerun_select_create,Cat_2422_Truck_6579,0.9,
63,76,reconstruction,37,915632,dw981o0alt3z4bw,633e12745ad6680bd85cd356,5,15657.0,,,,,,,,,,0.4,0.9,rerun_select_create,Airplane_4270_Deer_849,0.9,
64,84,reconstruction,6,269655,jflksdkwx9u55fc,633e12745ad6680bd85cd356,1,25589.400000095367,,,,,,,,,,0.6000000000000001,0.1,select_create,Dog_148_Truck_6840,0.1,
65,85,reconstruction,7,285165,jflksdkwx9u55fc,633e12745ad6680bd85cd356,1,15507.5,,,,,,,,,,0.6000000000000001,0.1,select_create,Bird_3076_Frog_1394,0.1,
66,86,reconstruction,8,294999,jflksdkwx9u55fc,633e12745ad6680bd85cd356,1,9832.300000190737,,,,,,,,,,0.7000000000000001,0.1,select_create,Bird_2774_Ship_5249,0.1,
67,87,reconstruction,9,337391,jflksdkwx9u55fc,633e12745ad6680bd85cd356,1,42389.70000004768,,,,,,,,,,0.4,0.1,select_create,Automobile_2838_Horse_2062,0.1,
68,88,reconstruction,10,346341,jflksdkwx9u55fc,633e12745ad6680bd85cd356,1,8948.0,,,,,,,,,,0.4,0.1,select_create,Automobile_6832_Frog_347,0.1,
69,89,reconstruction,11,356351,jflksdkwx9u55fc,633e12745ad6680bd85cd356,1,10008.099999904633,,,,,,,,,,0.8,0.1,select_create,Frog_3349_Horse_1560,0.1,
70,90,reconstruction,12,389037,jflksdkwx9u55fc,633e12745ad6680bd85cd356,1,32684.29999995232,,,,,,,,,,0.6000000000000001,0.1,select_create,Frog_5175_Truck_6963,0.1,
71,91,reconstruction,13,401897,jflksdkwx9u55fc,633e12745ad6680bd85cd356,1,12858.0,,,,,,,,,,0.6000000000000001,0.1,select_create,Airplane_1596_Frog_3615,0.1,
72,92,reconstruction,14,411577,jflksdkwx9u55fc,633e12745ad6680bd85cd356,1,9677.200000047684,,,,,,,,,,0.3,0.1,select_create,Automobile_2813_Truck_8727,0.1,
73,93,reconstruction,15,419129,jflksdkwx9u55fc,633e12745ad6680bd85cd356,1,7549.700000047684,,,,,,,,,,0.5,0.1,select_create,Frog_8792_Ship_2921,0.1,
74,94,reconstruction,16,429741,jflksdkwx9u55fc,633e12745ad6680bd85cd356,1,10609.599999904633,,,,,,,,,,0.5,0.1,select_create,Automobile_2484_Truck_1697,0.1,
75,95,reconstruction,17,437975,jflksdkwx9u55fc,633e12745ad6680bd85cd356,1,8232.399999856949,,,,,,,,,,0.3,0.1,select_create,Horse_9444_Truck_853,0.1,
76,96,reconstruction,18,448745,jflksdkwx9u55fc,633e12745ad6680bd85cd356,1,10768.399999856949,,,,,,,,,,0.6,0.1,select_create,Deer_3559_Horse_5541,0.1,
77,97,reconstruction,19,458501,jflksdkwx9u55fc,633e12745ad6680bd85cd356,1,9753.599999904633,,,,,,,,,,0.6,0.1,select_create,Bird_2811_Truck_9303,0.1,
78,98,reconstruction,20,468877,jflksdkwx9u55fc,633e12745ad6680bd85cd356,1,10374.0,,,,,,,,,,0.4,0.1,select_create,Airplane_9633_Bird_8756,0.1,
79,99,reconstruction,21,480320,jflksdkwx9u55fc,633e12745ad6680bd85cd356,1,11439.799999952316,,,,,,,,,,0.7000000000000001,0.1,select_create,Cat_7016_Dog_4860,0.1,
80,100,reconstruction,22,491136,jflksdkwx9u55fc,633e12745ad6680bd85cd356,1,10814.299999952316,,,,,,,,,,0.7000000000000001,0.1,select_create,Cat_515_Horse_4046,0.1,
81,101,reconstruction,23,499060,jflksdkwx9u55fc,633e12745ad6680bd85cd356,1,7922.299999952316,,,,,,,,,,0.5,0.1,select_create,Cat_9722_Horse_60,0.1,
82,102,reconstruction,24,509350,jflksdkwx9u55fc,633e12745ad6680bd85cd356,1,10287.799999952316,,,,,,,,,,0.4000000000000001,0.1,select_create,Horse_5070_Truck_4595,0.1,
83,103,reconstruction,25,521945,jflksdkwx9u55fc,633e12745ad6680bd85cd356,1,12592.300000190737,,,,,,,,,,0.6,0.1,select_create,Dog_9939_Horse_3836,0.1,
84,104,reconstruction,26,532293,jflksdkwx9u55fc,633e12745ad6680bd85cd356,1,10346.200000047684,,,,,,,,,,0.7,0.1,select_create,Automobile_6493_Frog_8250,0.1,
85,105,reconstruction,27,540339,jflksdkwx9u55fc,633e12745ad6680bd85cd356,1,8043.799999952316,,,,,,,,,,0.6,0.1,select_create,Airplane_9196_Ship_5427,0.1,
86,106,reconstruction,28,548711,jflksdkwx9u55fc,633e12745ad6680bd85cd356,1,8370.5,,,,,,,,,,0.6,0.1,select_create,Horse_57_Ship_2476,0.1,
87,107,reconstruction,29,563121,jflksdkwx9u55fc,633e12745ad6680bd85cd356,1,14407.900000095367,,,,,,,,,,0.5,0.1,select_create,Airplane_6400_Deer_9858,0.1,
88,108,reconstruction,30,573483,jflksdkwx9u55fc,633e12745ad6680bd85cd356,1,10360.299999952316,,,,,,,,,,0.7999999999999999,0.1,select_create,Deer_8622_Truck_1104,0.1,
89,109,reconstruction,31,581490,jflksdkwx9u55fc,633e12745ad6680bd85cd356,1,8006.299999952316,,,,,,,,,,0.7,0.1,select_create,Airplane_2614_Bird_2566,0.1,
90,110,reconstruction,32,588724,jflksdkwx9u55fc,633e12745ad6680bd85cd356,1,7232.099999904633,,,,,,,,,,0.4,0.1,select_create,Bird_1150_Frog_7917,0.1,
91,111,reconstruction,33,598716,jflksdkwx9u55fc,633e12745ad6680bd85cd356,1,9989.899999856949,,,,,,,,,,0.1,0.1,select_create,Automobile_894_Ship_80,0.1,
92,112,reconstruction,34,604778,jflksdkwx9u55fc,633e12745ad6680bd85cd356,1,6059.799999952316,,,,,,,,,,0.1,0.1,select_create,Automobile_3988_Bird_7348,0.1,
93,113,reconstruction,35,614742,jflksdkwx9u55fc,633e12745ad6680bd85cd356,1,9961.600000143051,,,,,,,,,,0.4,0.1,select_create,Dog_1901_Ship_600,0.1,
94,114,reconstruction,36,630966,jflksdkwx9u55fc,633e12745ad6680bd85cd356,1,16222.299999952316,,,,,,,,,,0.7999999999999999,0.1,rerun_select_create,Frog_3349_Horse_1560,0.1,
95,115,reconstruction,37,645413,jflksdkwx9u55fc,633e12745ad6680bd85cd356,1,14444.100000143051,,,,,,,,,,0.4,0.1,rerun_select_create,Automobile_2484_Truck_1697,0.1,
96,123,reconstruction,6,58819,v36slw365q2gdp3,6343e0dafaf3e94eaa001ae4,7,36033.20000000298,,,,,,,,,,0.5000000000000001,0.1,select_create,Frog_4179_Horse_2959,0.1,
97,124,reconstruction,7,67410,v36slw365q2gdp3,6343e0dafaf3e94eaa001ae4,7,8588.5,,,,,,,,,,0.5,0.1,select_create,Automobile_9807_Horse_7456,0.1,
98,125,reconstruction,8,76643,v36slw365q2gdp3,6343e0dafaf3e94eaa001ae4,7,9231.20000000298,,,,,,,,,,0.4,0.1,select_create,Deer_5888_Dog_6835,0.1,
99,126,reconstruction,9,88314,v36slw365q2gdp3,6343e0dafaf3e94eaa001ae4,7,11670.0,,,,,,,,,,0.4,0.1,select_create,Cat_608_Frog_1985,0.1,
100,127,reconstruction,10,97667,v36slw365q2gdp3,6343e0dafaf3e94eaa001ae4,7,9351.30000000447,,,,,,,,,,0.6000000000000001,0.1,select_create,Ship_385_Truck_7661,0.1,
101,128,reconstruction,11,106490,v36slw365q2gdp3,6343e0dafaf3e94eaa001ae4,7,8821.29999999702,,,,,,,,,,0.5,0.1,select_create,Cat_426_Dog_8766,0.1,
102,129,reconstruction,12,113227,v36slw365q2gdp3,6343e0dafaf3e94eaa001ae4,7,6735.4000000059605,,,,,,,,,,0.2,0.1,select_create,Bird_7348_Cat_6202,0.1,
103,130,reconstruction,13,128507,v36slw365q2gdp3,6343e0dafaf3e94eaa001ae4,7,15278.59999999404,,,,,,,,,,0.5000000000000001,0.1,select_create,Airplane_6970_Truck_9177,0.1,
104,131,reconstruction,14,134323,v36slw365q2gdp3,6343e0dafaf3e94eaa001ae4,7,5813.70000000298,,,,,,,,,,0.4,0.1,select_create,Automobile_5132_Truck_4770,0.1,
105,132,reconstruction,15,138115,v36slw365q2gdp3,6343e0dafaf3e94eaa001ae4,7,3790.89999999851,,,,,,,,,,0.7000000000000001,0.1,select_create,Dog_6214_Horse_5953,0.1,
106,133,reconstruction,16,142715,v36slw365q2gdp3,6343e0dafaf3e94eaa001ae4,7,4597.70000000298,,,,,,,,,,0.6000000000000001,0.1,select_create,Airplane_7115_Horse_4019,0.1,
107,134,reconstruction,17,148187,v36slw365q2gdp3,6343e0dafaf3e94eaa001ae4,7,5470.30000000447,,,,,,,,,,0.6000000000000001,0.1,select_create,Dog_6224_Frog_617,0.1,
108,135,reconstruction,18,152627,v36slw365q2gdp3,6343e0dafaf3e94eaa001ae4,7,4439.0,,,,,,,,,,0.5000000000000001,0.1,select_create,Bird_4873_Deer_4677,0.1,
109,136,reconstruction,19,155986,v36slw365q2gdp3,6343e0dafaf3e94eaa001ae4,7,3357.6999999955297,,,,,,,,,,0.7000000000000001,0.1,select_create,Bird_2856_Dog_5694,0.1,
110,137,reconstruction,20,165739,v36slw365q2gdp3,6343e0dafaf3e94eaa001ae4,7,9750.70000000298,,,,,,,,,,0.5,0.1,select_create,Bird_4535_Cat_4652,0.1,
111,138,reconstruction,21,170154,v36slw365q2gdp3,6343e0dafaf3e94eaa001ae4,7,4414.19999999553,,,,,,,,,,0.6000000000000001,0.1,select_create,Deer_4399_Dog_4934,0.1,
112,139,reconstruction,22,176051,v36slw365q2gdp3,6343e0dafaf3e94eaa001ae4,7,5895.0,,,,,,,,,,0.6000000000000001,0.1,select_create,Bird_5771_Truck_1344,0.1,
113,140,reconstruction,23,180019,v36slw365q2gdp3,6343e0dafaf3e94eaa001ae4,7,3966.0,,,,,,,,,,0.6000000000000001,0.1,select_create,Airplane_4557_Automobile_6100,0.1,
114,141,reconstruction,24,189219,v36slw365q2gdp3,6343e0dafaf3e94eaa001ae4,7,9198.29999999702,,,,,,,,,,0.4000000000000001,0.1,select_create,Airplane_4606_Ship_5355,0.1,
115,142,reconstruction,25,194707,v36slw365q2gdp3,6343e0dafaf3e94eaa001ae4,7,5487.10000000149,,,,,,,,,,0.3000000000000001,0.1,select_create,Bird_6925_Frog_1766,0.1,
116,143,reconstruction,26,199490,v36slw365q2gdp3,6343e0dafaf3e94eaa001ae4,7,4781.39999999851,,,,,,,,,,0.5000000000000001,0.1,select_create,Automobile_9830_Bird_5118,0.1,
117,144,reconstruction,27,203603,v36slw365q2gdp3,6343e0dafaf3e94eaa001ae4,7,4111.5,,,,,,,,,,0.6000000000000001,0.1,select_create,Airplane_8935_Cat_8658,0.1,
118,145,reconstruction,28,209459,v36slw365q2gdp3,6343e0dafaf3e94eaa001ae4,7,5854.9000000059605,,,,,,,,,,0.4000000000000001,0.1,select_create,Deer_1300_Frog_6731,0.1,
119,146,reconstruction,29,213787,v36slw365q2gdp3,6343e0dafaf3e94eaa001ae4,7,4326.9000000059605,,,,,,,,,,0.6000000000000001,0.1,select_create,Cat_2840_Frog_3427,0.1,
120,147,reconstruction,30,218251,v36slw365q2gdp3,6343e0dafaf3e94eaa001ae4,7,4461.89999999851,,,,,,,,,,0.6000000000000001,0.1,select_create,Bird_776_Ship_711,0.1,
121,148,reconstruction,31,229363,v36slw365q2gdp3,6343e0dafaf3e94eaa001ae4,7,11110.0,,,,,,,,,,0.6000000000000001,0.1,select_create,Airplane_8402_Dog_9414,0.1,
122,149,reconstruction,32,235428,v36slw365q2gdp3,6343e0dafaf3e94eaa001ae4,7,6062.79999999702,,,,,,,,,,0.4000000000000001,0.1,select_create,Automobile_7487_Bird_9825,0.1,
123,150,reconstruction,33,246724,v36slw365q2gdp3,6343e0dafaf3e94eaa001ae4,7,11294.0,,,,,,,,,,0.7000000000000001,0.1,select_create,Deer_9924_Truck_9552,0.1,
124,151,reconstruction,34,255124,v36slw365q2gdp3,6343e0dafaf3e94eaa001ae4,7,8398.60000000149,,,,,,,,,,0.7000000000000001,0.1,select_create,Frog_5567_Truck_1114,0.1,
125,152,reconstruction,35,258828,v36slw365q2gdp3,6343e0dafaf3e94eaa001ae4,7,3702.10000000149,,,,,,,,,,0.6000000000000001,0.1,select_create,Frog_512_Horse_1477,0.1,
126,153,reconstruction,36,264299,v36slw365q2gdp3,6343e0dafaf3e94eaa001ae4,7,5470.09999999404,,,,,,,,,,0.6000000000000001,0.1,rerun_select_create,Cat_426_Dog_8766,0.1,
127,154,reconstruction,37,267427,v36slw365q2gdp3,6343e0dafaf3e94eaa001ae4,7,3125.70000000298,,,,,,,,,,0.6,0.1,rerun_select_create,Airplane_7115_Horse_4019,0.1,
128,162,reconstruction,6,139600,n73uv8g43jjoax7,633e12745ad6680bd85cd356,2,34532.40000009537,,,,,,,,,,0.5,0.9,select_create,Horse_7342_Truck_6795,0.9,
129,163,reconstruction,7,151511,n73uv8g43jjoax7,633e12745ad6680bd85cd356,2,11909.600000143051,,,,,,,,,,0.7000000000000001,0.9,select_create,Bird_9624_Deer_9585,0.9,
130,164,reconstruction,8,166416,n73uv8g43jjoax7,633e12745ad6680bd85cd356,2,14901.900000095367,,,,,,,,,,0.4000000000000001,0.9,select_create,Automobile_3527_Frog_300,0.9,
131,165,reconstruction,9,182231,n73uv8g43jjoax7,633e12745ad6680bd85cd356,2,15813.300000190737,,,,,,,,,,0.5,0.9,select_create,Dog_810_Ship_582,0.9,
132,166,reconstruction,10,191976,n73uv8g43jjoax7,633e12745ad6680bd85cd356,2,9742.100000143051,,,,,,,,,,0.4,0.9,select_create,Bird_5085_Frog_7066,0.9,
133,167,reconstruction,11,201831,n73uv8g43jjoax7,633e12745ad6680bd85cd356,2,9853.300000190737,,,,,,,,,,0.6000000000000001,0.9,select_create,Cat_9121_Deer_8566,0.9,
134,168,reconstruction,12,213359,n73uv8g43jjoax7,633e12745ad6680bd85cd356,2,11526.200000047684,,,,,,,,,,0.6000000000000001,0.9,select_create,Dog_6065_Frog_772,0.9,
135,169,reconstruction,13,222551,n73uv8g43jjoax7,633e12745ad6680bd85cd356,2,9189.899999856949,,,,,,,,,,0.4,0.9,select_create,Dog_8869_Horse_5096,0.9,
136,170,reconstruction,14,232655,n73uv8g43jjoax7,633e12745ad6680bd85cd356,2,10102.200000047684,,,,,,,,,,0.5,0.9,select_create,Dog_3748_Horse_5690,0.9,
137,171,reconstruction,15,242887,n73uv8g43jjoax7,633e12745ad6680bd85cd356,2,10229.899999856949,,,,,,,,,,0.3000000000000001,0.9,select_create,Horse_1602_Ship_2527,0.9,
138,172,reconstruction,16,254447,n73uv8g43jjoax7,633e12745ad6680bd85cd356,2,11557.899999856949,,,,,,,,,,0.4,0.9,select_create,Airplane_9724_Automobile_6577,0.9,
139,173,reconstruction,17,259215,n73uv8g43jjoax7,633e12745ad6680bd85cd356,2,4765.599999904633,,,,,,,,,,0.4000000000000001,0.9,select_create,Frog_3124_Ship_7142,0.9,
140,174,reconstruction,18,265287,n73uv8g43jjoax7,633e12745ad6680bd85cd356,2,6070.399999856949,,,,,,,,,,0.5000000000000001,0.9,select_create,Cat_8420_Deer_5252,0.9,
141,175,reconstruction,19,277879,n73uv8g43jjoax7,633e12745ad6680bd85cd356,2,12590.299999952316,,,,,,,,,,0.5,0.9,select_create,Automobile_4948_Frog_4405,0.9,
142,176,reconstruction,20,287671,n73uv8g43jjoax7,633e12745ad6680bd85cd356,2,9789.899999856949,,,,,,,,,,0.9,0.9,select_create,Cat_3023_Frog_4774,0.9,
143,177,reconstruction,21,295055,n73uv8g43jjoax7,633e12745ad6680bd85cd356,2,7382.399999856949,,,,,,,,,,0.7000000000000001,0.9,select_create,Airplane_7987_Dog_4906,0.9,
144,178,reconstruction,22,302663,n73uv8g43jjoax7,633e12745ad6680bd85cd356,2,7605.400000095367,,,,,,,,,,0.5000000000000001,0.9,select_create,Frog_8963_Truck_1841,0.9,
145,179,reconstruction,23,306375,n73uv8g43jjoax7,633e12745ad6680bd85cd356,2,3710.099999904633,,,,,,,,,,0.6000000000000001,0.9,select_create,Airplane_8777_Truck_139,0.9,
146,180,reconstruction,24,310535,n73uv8g43jjoax7,633e12745ad6680bd85cd356,2,4158.900000095367,,,,,,,,,,0.5000000000000001,0.9,select_create,Deer_2786_Dog_8202,0.9,
147,181,reconstruction,25,318127,n73uv8g43jjoax7,633e12745ad6680bd85cd356,2,7589.699999809265,,,,,,,,,,0.5000000000000001,0.9,select_create,Automobile_887_Bird_8384,0.9,
148,182,reconstruction,26,321271,n73uv8g43jjoax7,633e12745ad6680bd85cd356,2,3142.099999904633,,,,,,,,,,0.6000000000000001,0.9,select_create,Automobile_5456_Frog_7606,0.9,
149,183,reconstruction,27,331862,n73uv8g43jjoax7,633e12745ad6680bd85cd356,2,10589.799999952316,,,,,,,,,,0.5000000000000001,0.9,select_create,Horse_5096_Truck_9312,0.9,
150,184,reconstruction,28,335047,n73uv8g43jjoax7,633e12745ad6680bd85cd356,2,3182.4000000953674,,,,,,,,,,0.6000000000000001,0.9,select_create,Cat_7807_Deer_4027,0.9,
151,185,reconstruction,29,339607,n73uv8g43jjoax7,633e12745ad6680bd85cd356,2,4558.099999904633,,,,,,,,,,0.6000000000000001,0.9,select_create,Automobile_887_Bird_8384,0.9,
152,186,reconstruction,30,345767,n73uv8g43jjoax7,633e12745ad6680bd85cd356,2,6158.0,,,,,,,,,,0.5,0.9,select_create,Deer_2260_Horse_9855,0.9,
153,187,reconstruction,31,352135,n73uv8g43jjoax7,633e12745ad6680bd85cd356,2,6366.400000095367,,,,,,,,,,0.6000000000000001,0.9,select_create,Bird_2977_Truck_626,0.9,
154,188,reconstruction,32,357647,n73uv8g43jjoax7,633e12745ad6680bd85cd356,2,5510.200000047684,,,,,,,,,,0.4000000000000001,0.9,select_create,Deer_557_Ship_8226,0.9,
155,189,reconstruction,33,362983,n73uv8g43jjoax7,633e12745ad6680bd85cd356,2,5334.0,,,,,,,,,,0.6000000000000001,0.9,select_create,Automobile_104_Horse_2652,0.9,
156,190,reconstruction,34,369175,n73uv8g43jjoax7,633e12745ad6680bd85cd356,2,6190.5,,,,,,,,,,0.5,0.9,select_create,Deer_7039_Frog_1452,0.9,
157,191,reconstruction,35,375823,n73uv8g43jjoax7,633e12745ad6680bd85cd356,2,6646.0,,,,,,,,,,0.4,0.9,select_create,Airplane_3497_Ship_8913,0.9,
158,192,reconstruction,36,379927,n73uv8g43jjoax7,633e12745ad6680bd85cd356,2,4101.799999952316,,,,,,,,,,0.7000000000000001,0.9,rerun_select_create,Cat_9121_Deer_8566,0.9,
159,193,reconstruction,37,382711,n73uv8g43jjoax7,633e12745ad6680bd85cd356,2,2782.200000047684,,,,,,,,,,0.7000000000000001,0.9,rerun_select_create,Airplane_9724_Automobile_6577,0.9,
160,201,reconstruction,6,233305,0y0tvp2v5hmmul4,633e12745ad6680bd85cd356,0,27206.69499994256,,,,,,,,,,0.6,0.1,select_create,Cat_8739_Frog_7333,0.1,
161,202,reconstruction,7,247294,0y0tvp2v5hmmul4,633e12745ad6680bd85cd356,0,13980.750000104308,,,,,,,,,,0.5,0.1,select_create,Automobile_3066_Ship_959,0.1,
162,203,reconstruction,8,272987,0y0tvp2v5hmmul4,633e12745ad6680bd85cd356,0,25684.690000023693,,,,,,,,,,0.6,0.1,select_create,Automobile_9197_Deer_8914,0.1,
163,204,reconstruction,9,284607,0y0tvp2v5hmmul4,633e12745ad6680bd85cd356,0,11612.539999885485,,,,,,,,,,0.5,0.1,select_create,Automobile_2773_Deer_4985,0.1,
164,205,reconstruction,10,303319,0y0tvp2v5hmmul4,633e12745ad6680bd85cd356,0,18706.179999979213,,,,,,,,,,0.6,0.1,select_create,Bird_6519_Cat_1445,0.1,
165,206,reconstruction,11,324619,0y0tvp2v5hmmul4,633e12745ad6680bd85cd356,0,21293.620000011288,,,,,,,,,,0.5,0.1,select_create,Airplane_4792_Frog_8881,0.1,
166,207,reconstruction,12,342082,0y0tvp2v5hmmul4,633e12745ad6680bd85cd356,0,17457.840000046417,,,,,,,,,,0.5000000000000001,0.1,select_create,Automobile_5366_Frog_6330,0.1,
167,208,reconstruction,13,360070,0y0tvp2v5hmmul4,633e12745ad6680bd85cd356,0,17981.4250000054,,,,,,,,,,0.6,0.1,select_create,Cat_5817_Ship_909,0.1,
168,209,reconstruction,14,370445,0y0tvp2v5hmmul4,633e12745ad6680bd85cd356,0,10363.899999996647,,,,,,,,,,0.4,0.1,select_create,Frog_3588_Ship_404,0.1,
169,210,reconstruction,15,386565,0y0tvp2v5hmmul4,633e12745ad6680bd85cd356,0,16110.03000009805,,,,,,,,,,0.4000000000000001,0.1,select_create,Deer_6753_Frog_1578,0.1,
170,211,reconstruction,16,401232,0y0tvp2v5hmmul4,633e12745ad6680bd85cd356,0,14661.179999937303,,,,,,,,,,0.5000000000000001,0.1,select_create,Airplane_6491_Frog_8781,0.1,
171,212,reconstruction,17,421706,0y0tvp2v5hmmul4,633e12745ad6680bd85cd356,0,20466.61000000313,,,,,,,,,,0.5000000000000001,0.1,select_create,Cat_7496_Ship_260,0.1,
172,213,reconstruction,18,430910,0y0tvp2v5hmmul4,633e12745ad6680bd85cd356,0,9198.605000041423,,,,,,,,,,0.4,0.1,select_create,Airplane_9354_Automobile_7484,0.1,
173,214,reconstruction,19,447149,0y0tvp2v5hmmul4,633e12745ad6680bd85cd356,0,16230.984999914654,,,,,,,,,,0.7,0.1,select_create,Automobile_8811_Horse_3332,0.1,
174,215,reconstruction,20,458405,0y0tvp2v5hmmul4,633e12745ad6680bd85cd356,0,11248.765000025742,,,,,,,,,,0.5,0.1,select_create,Deer_9393_Truck_4588,0.1,
175,216,reconstruction,21,469373,0y0tvp2v5hmmul4,633e12745ad6680bd85cd356,0,10959.18000000529,,,,,,,,,,0.4,0.1,select_create,Automobile_5079_Deer_5654,0.1,
176,217,reconstruction,22,492055,0y0tvp2v5hmmul4,633e12745ad6680bd85cd356,0,22672.110000043176,,,,,,,,,,0.5,0.1,select_create,Bird_7104_Truck_9692,0.1,
177,218,reconstruction,23,505343,0y0tvp2v5hmmul4,633e12745ad6680bd85cd356,0,13281.499999924565,,,,,,,,,,0.4000000000000001,0.1,select_create,Cat_6596_Ship_6975,0.1,
178,219,reconstruction,24,513915,0y0tvp2v5hmmul4,633e12745ad6680bd85cd356,0,8564.654999994673,,,,,,,,,,0.4,0.1,select_create,Automobile_2504_Dog_9098,0.1,
179,220,reconstruction,25,535723,0y0tvp2v5hmmul4,633e12745ad6680bd85cd356,0,21801.585000008345,,,,,,,,,,0.6000000000000001,0.1,select_create,Bird_4729_Horse_2682,0.1,
180,221,reconstruction,26,547528,0y0tvp2v5hmmul4,633e12745ad6680bd85cd356,0,11799.044999992477,,,,,,,,,,0.4,0.1,select_create,Airplane_847_Horse_9554,0.1,
181,222,reconstruction,27,556630,0y0tvp2v5hmmul4,633e12745ad6680bd85cd356,0,9094.020000076853,,,,,,,,,,0.3,0.1,select_create,Automobile_9535_Ship_7765,0.1,
182,223,reconstruction,28,580842,0y0tvp2v5hmmul4,633e12745ad6680bd85cd356,0,24204.89500008989,,,,,,,,,,0.6,0.1,select_create,Deer_583_Horse_6667,0.1,
183,224,reconstruction,29,592512,0y0tvp2v5hmmul4,633e12745ad6680bd85cd356,0,11659.900000086054,,,,,,,,,,0.4,0.1,select_create,Bird_1723_Deer_7654,0.1,
184,225,reconstruction,30,607326,0y0tvp2v5hmmul4,633e12745ad6680bd85cd356,0,14808.109999983571,,,,,,,,,,0.7000000000000001,0.1,select_create,Cat_6647_Horse_7703,0.1,
185,226,reconstruction,31,619506,0y0tvp2v5hmmul4,633e12745ad6680bd85cd356,0,12172.580000013111,,,,,,,,,,0.4,0.1,select_create,Airplane_7428_Dog_5504,0.1,
186,227,reconstruction,32,633565,0y0tvp2v5hmmul4,633e12745ad6680bd85cd356,0,14048.425000044515,,,,,,,,,,0.5,0.1,select_create,Airplane_2535_Horse_4332,0.1,
187,228,reconstruction,33,646920,0y0tvp2v5hmmul4,633e12745ad6680bd85cd356,0,13347.234999993816,,,,,,,,,,0.5,0.1,select_create,Cat_1593_Horse_1201,0.1,
188,229,reconstruction,34,657391,0y0tvp2v5hmmul4,633e12745ad6680bd85cd356,0,10461.259999894535,,,,,,,,,,0.5,0.1,select_create,Cat_650_Horse_4951,0.1,
189,230,reconstruction,35,668095,0y0tvp2v5hmmul4,633e12745ad6680bd85cd356,0,10697.399999946356,,,,,,,,,,0.5,0.1,select_create,Automobile_3565_Dog_3849,0.1,
190,231,reconstruction,36,678218,0y0tvp2v5hmmul4,633e12745ad6680bd85cd356,0,10115.35500001628,,,,,,,,,,0.4,0.1,rerun_select_create,Airplane_4792_Frog_8881,0.1,
191,232,reconstruction,37,690130,0y0tvp2v5hmmul4,633e12745ad6680bd85cd356,0,11906.140000093728,,,,,,,,,,0.5,0.1,rerun_select_create,Airplane_6491_Frog_8781,0.1,
192,240,reconstruction,6,147258,apgusqngvrmv4xc,633e12745ad6680bd85cd356,5,17533.0,,,,,,,,,,0.9,0.9,select_create,Deer_4114_Horse_1119,0.9,
193,241,reconstruction,7,169129,apgusqngvrmv4xc,633e12745ad6680bd85cd356,5,21868.0,,,,,,,,,,0.3,0.9,select_create,Cat_9310_Ship_9491,0.9,
194,242,reconstruction,8,178633,apgusqngvrmv4xc,633e12745ad6680bd85cd356,5,9503.0,,,,,,,,,,0.4,0.9,select_create,Dog_1818_Truck_5938,0.9,
195,243,reconstruction,9,191201,apgusqngvrmv4xc,633e12745ad6680bd85cd356,5,12566.0,,,,,,,,,,0.5000000000000001,0.9,select_create,Horse_5096_Truck_9312,0.9,
196,244,reconstruction,10,201121,apgusqngvrmv4xc,633e12745ad6680bd85cd356,5,9919.0,,,,,,,,,,0.4,0.9,select_create,Dog_2316_Horse_7086,0.9,
197,245,reconstruction,11,209498,apgusqngvrmv4xc,633e12745ad6680bd85cd356,5,8376.0,,,,,,,,,,0.5,0.9,select_create,Bird_5819_Dog_8776,0.9,
198,246,reconstruction,12,219382,apgusqngvrmv4xc,633e12745ad6680bd85cd356,5,9883.0,,,,,,,,,,0.5000000000000001,0.9,select_create,Bird_354_Deer_6507,0.9,
199,247,reconstruction,13,227119,apgusqngvrmv4xc,633e12745ad6680bd85cd356,5,7736.0,,,,,,,,,,0.5,0.9,select_create,Automobile_7570_Cat_4094,0.9,
200,248,reconstruction,14,233643,apgusqngvrmv4xc,633e12745ad6680bd85cd356,5,6522.0,,,,,,,,,,0.6,0.9,select_create,Horse_6044_Ship_7600,0.9,
201,249,reconstruction,15,240700,apgusqngvrmv4xc,633e12745ad6680bd85cd356,5,7055.0,,,,,,,,,,0.3,0.9,select_create,Automobile_1882_Deer_4227,0.9,
202,250,reconstruction,16,247887,apgusqngvrmv4xc,633e12745ad6680bd85cd356,5,7186.0,,,,,,,,,,0.5,0.9,select_create,Cat_2285_Frog_5513,0.9,
203,251,reconstruction,17,256133,apgusqngvrmv4xc,633e12745ad6680bd85cd356,5,8244.0,,,,,,,,,,0.3,0.9,select_create,Airplane_6057_Deer_9189,0.9,
204,252,reconstruction,18,265531,apgusqngvrmv4xc,633e12745ad6680bd85cd356,5,9398.0,,,,,,,,,,0.5,0.9,select_create,Airplane_6069_Horse_578,0.9,
205,253,reconstruction,19,273667,apgusqngvrmv4xc,633e12745ad6680bd85cd356,5,8134.0,,,,,,,,,,0.4,0.9,select_create,Automobile_2813_Truck_8727,0.9,
206,254,reconstruction,20,285561,apgusqngvrmv4xc,633e12745ad6680bd85cd356,5,11893.0,,,,,,,,,,0.6,0.9,select_create,Cat_6705_Frog_783,0.9,
207,255,reconstruction,21,294973,apgusqngvrmv4xc,633e12745ad6680bd85cd356,5,9410.0,,,,,,,,,,0.6,0.9,select_create,Cat_2422_Truck_6579,0.9,
208,256,reconstruction,22,304098,apgusqngvrmv4xc,633e12745ad6680bd85cd356,5,9124.0,,,,,,,,,,0.3,0.9,select_create,Airplane_8812_Bird_3076,0.9,
209,257,reconstruction,23,312386,apgusqngvrmv4xc,633e12745ad6680bd85cd356,5,8287.0,,,,,,,,,,0.6,0.9,select_create,Bird_1043_Horse_5464,0.9,
210,258,reconstruction,24,318884,apgusqngvrmv4xc,633e12745ad6680bd85cd356,5,6496.0,,,,,,,,,,0.4,0.9,select_create,Airplane_4270_Deer_849,0.9,
211,259,reconstruction,25,326762,apgusqngvrmv4xc,633e12745ad6680bd85cd356,5,7877.0,,,,,,,,,,0.4,0.9,select_create,Airplane_6491_Frog_8781,0.9,
212,260,reconstruction,26,334823,apgusqngvrmv4xc,633e12745ad6680bd85cd356,5,8060.0,,,,,,,,,,0.6,0.9,select_create,Bird_7508_Frog_7690,0.9,
213,261,reconstruction,27,343674,apgusqngvrmv4xc,633e12745ad6680bd85cd356,5,8850.0,,,,,,,,,,0.5,0.9,select_create,Airplane_2589_Cat_6202,0.9,
214,262,reconstruction,28,353324,apgusqngvrmv4xc,633e12745ad6680bd85cd356,5,9649.0,,,,,,,,,,0.5,0.9,select_create,Cat_2175_Dog_8788,0.9,
215,263,reconstruction,29,360718,apgusqngvrmv4xc,633e12745ad6680bd85cd356,5,7391.0,,,,,,,,,,0.6000000000000001,0.9,select_create,Airplane_2628_Frog_9653,0.9,
216,264,reconstruction,30,368824,apgusqngvrmv4xc,633e12745ad6680bd85cd356,5,8106.0,,,,,,,,,,0.5,0.9,select_create,Horse_5558_Ship_7706,0.9,
217,265,reconstruction,31,375675,apgusqngvrmv4xc,633e12745ad6680bd85cd356,5,6851.0,,,,,,,,,,0.5,0.9,select_create,Airplane_258_Truck_744,0.9,
218,266,reconstruction,32,387081,apgusqngvrmv4xc,633e12745ad6680bd85cd356,5,11403.0,,,,,,,,,,0.6000000000000001,0.9,select_create,Frog_4161_Truck_1439,0.9,
219,267,reconstruction,33,395194,apgusqngvrmv4xc,633e12745ad6680bd85cd356,5,8112.0,,,,,,,,,,0.5,0.9,select_create,Airplane_2200_Ship_1281,0.9,
220,268,reconstruction,34,402947,apgusqngvrmv4xc,633e12745ad6680bd85cd356,5,7751.0,,,,,,,,,,0.5,0.9,select_create,Ship_6691_Truck_5674,0.9,
221,269,reconstruction,35,411386,apgusqngvrmv4xc,633e12745ad6680bd85cd356,5,8439.0,,,,,,,,,,0.3,0.9,select_create,Frog_2865_Horse_7935,0.9,
222,270,reconstruction,36,418590,apgusqngvrmv4xc,633e12745ad6680bd85cd356,5,7203.0,,,,,,,,,,0.5,0.9,rerun_select_create,Bird_5819_Dog_8776,0.9,
223,271,reconstruction,37,425070,apgusqngvrmv4xc,633e12745ad6680bd85cd356,5,6478.0,,,,,,,,,,0.4,0.9,rerun_select_create,Cat_2285_Frog_5513,0.9,
224,279,reconstruction,6,326808,za14j146wlrdxtf,633e12745ad6680bd85cd356,4,43869.5,,,,,,,,,,0.5,0.9,select_create,Ship_337_Truck_2305,0.9,
225,280,reconstruction,7,334070,za14j146wlrdxtf,633e12745ad6680bd85cd356,4,7257.600000008941,,,,,,,,,,0.6000000000000001,0.9,select_create,Deer_9711_Horse_3187,0.9,
226,281,reconstruction,8,343078,za14j146wlrdxtf,633e12745ad6680bd85cd356,4,9004.60000000894,,,,,,,,,,0.6000000000000001,0.9,select_create,Automobile_3370_Horse_2734,0.9,
227,282,reconstruction,9,354535,za14j146wlrdxtf,633e12745ad6680bd85cd356,4,11453.29999999702,,,,,,,,,,0.4,0.9,select_create,Dog_3748_Horse_5690,0.9,
228,283,reconstruction,10,362489,za14j146wlrdxtf,633e12745ad6680bd85cd356,4,7949.40000000596,,,,,,,,,,0.4,0.9,select_create,Automobile_2484_Truck_1697,0.9,
229,284,reconstruction,11,374618,za14j146wlrdxtf,633e12745ad6680bd85cd356,4,12125.0,,,,,,,,,,0.7000000000000001,0.9,select_create,Bird_2383_Dog_9098,0.9,
230,285,reconstruction,12,386214,za14j146wlrdxtf,633e12745ad6680bd85cd356,4,11591.70000000298,,,,,,,,,,0.5000000000000001,0.9,select_create,Ship_3357_Truck_5958,0.9,
231,286,reconstruction,13,392371,za14j146wlrdxtf,633e12745ad6680bd85cd356,4,6153.20000000298,,,,,,,,,,0.5,0.9,select_create,Deer_8086_Truck_4952,0.9,
232,287,reconstruction,14,398381,za14j146wlrdxtf,633e12745ad6680bd85cd356,4,6006.20000000298,,,,,,,,,,0.4,0.9,select_create,Airplane_4040_Bird_2097,0.9,
233,288,reconstruction,15,406846,za14j146wlrdxtf,633e12745ad6680bd85cd356,4,8462.29999999702,,,,,,,,,,0.5,0.9,select_create,Bird_6145_Cat_7399,0.9,
234,289,reconstruction,16,413584,za14j146wlrdxtf,633e12745ad6680bd85cd356,4,6734.4000000059605,,,,,,,,,,0.6,0.9,select_create,Ship_8441_Truck_5521,0.9,
235,290,reconstruction,17,420523,za14j146wlrdxtf,633e12745ad6680bd85cd356,4,6934.0,,,,,,,,,,0.4,0.9,select_create,Automobile_366_Dog_8115,0.9,
236,291,reconstruction,18,428042,za14j146wlrdxtf,633e12745ad6680bd85cd356,4,7513.599999994039,,,,,,,,,,0.5,0.9,select_create,Cat_78_Deer_1015,0.9,
237,292,reconstruction,19,436478,za14j146wlrdxtf,633e12745ad6680bd85cd356,4,8432.89999999106,,,,,,,,,,0.4,0.9,select_create,Bird_7821_Ship_2380,0.9,
238,293,reconstruction,20,442715,za14j146wlrdxtf,633e12745ad6680bd85cd356,4,6233.20000000298,,,,,,,,,,0.5,0.9,select_create,Cat_4652_Truck_4550,0.9,
239,294,reconstruction,21,449347,za14j146wlrdxtf,633e12745ad6680bd85cd356,4,6627.29999999702,,,,,,,,,,0.5,0.9,select_create,Automobile_4549_Cat_1377,0.9,
240,295,reconstruction,22,457104,za14j146wlrdxtf,633e12745ad6680bd85cd356,4,7753.599999994039,,,,,,,,,,0.5,0.9,select_create,Airplane_4824_Truck_4719,0.9,
241,296,reconstruction,23,465424,za14j146wlrdxtf,633e12745ad6680bd85cd356,4,8316.89999999106,,,,,,,,,,0.4,0.9,select_create,Automobile_947_Cat_4760,0.9,
242,297,reconstruction,24,472955,za14j146wlrdxtf,633e12745ad6680bd85cd356,4,7527.0,,,,,,,,,,0.6,0.9,select_create,Deer_1945_Dog_9376,0.9,
243,298,reconstruction,25,480181,za14j146wlrdxtf,633e12745ad6680bd85cd356,4,7221.70000000298,,,,,,,,,,0.6,0.9,select_create,Cat_4346_Truck_4932,0.9,
244,299,reconstruction,26,486685,za14j146wlrdxtf,633e12745ad6680bd85cd356,4,6500.0,,,,,,,,,,0.5,0.9,select_create,Airplane_4216_Horse_6266,0.9,
245,300,reconstruction,27,492942,za14j146wlrdxtf,633e12745ad6680bd85cd356,4,6253.899999991059,,,,,,,,,,0.5,0.9,select_create,Bird_3934_Dog_6890,0.9,
246,301,reconstruction,28,498242,za14j146wlrdxtf,633e12745ad6680bd85cd356,4,5296.4000000059605,,,,,,,,,,0.4,0.9,select_create,Automobile_3553_Horse_7751,0.9,
247,302,reconstruction,29,505397,za14j146wlrdxtf,633e12745ad6680bd85cd356,4,7151.100000008941,,,,,,,,,,0.6,0.9,select_create,Cat_3572_Dog_6564,0.9,
248,303,reconstruction,30,512443,za14j146wlrdxtf,633e12745ad6680bd85cd356,4,7042.899999991059,,,,,,,,,,0.4,0.9,select_create,Airplane_8909_Dog_1793,0.9,
249,304,reconstruction,31,518623,za14j146wlrdxtf,633e12745ad6680bd85cd356,4,6175.59999999404,,,,,,,,,,0.4,0.9,select_create,Bird_4873_Deer_4677,0.9,
250,305,reconstruction,32,526176,za14j146wlrdxtf,633e12745ad6680bd85cd356,4,7549.0,,,,,,,,,,0.6,0.9,select_create,Airplane_74_Dog_3610,0.9,
251,306,reconstruction,33,532243,za14j146wlrdxtf,633e12745ad6680bd85cd356,4,6063.70000000298,,,,,,,,,,0.6,0.9,select_create,Automobile_2712_Truck_2433,0.9,
252,307,reconstruction,34,538669,za14j146wlrdxtf,633e12745ad6680bd85cd356,4,6422.5,,,,,,,,,,0.7,0.9,select_create,Airplane_1719_Automobile_4425,0.9,
253,308,reconstruction,35,548074,za14j146wlrdxtf,633e12745ad6680bd85cd356,4,9400.89999999106,,,,,,,,,,0.5,0.9,select_create,Dog_478_Truck_9099,0.9,
254,309,reconstruction,36,555032,za14j146wlrdxtf,633e12745ad6680bd85cd356,4,6955.0,,,,,,,,,,0.7,0.9,rerun_select_create,Bird_2383_Dog_9098,0.9,
255,310,reconstruction,37,561850,za14j146wlrdxtf,633e12745ad6680bd85cd356,4,6814.5,,,,,,,,,,0.6,0.9,rerun_select_create,Ship_8441_Truck_5521,0.9,
256,318,reconstruction,6,185380,g9qa24sowtky6t3,6343e0dafaf3e94eaa001ae4,8,50525.0,,,,,,,,,,0.3,0.9,select_create,Cat_1050_Ship_6524,0.9,
257,319,reconstruction,7,199761,g9qa24sowtky6t3,6343e0dafaf3e94eaa001ae4,8,14377.100000000091,,,,,,,,,,0.6,0.9,select_create,Cat_1603_Dog_9798,0.9,
258,320,reconstruction,8,216795,g9qa24sowtky6t3,6343e0dafaf3e94eaa001ae4,8,17030.0,,,,,,,,,,0.5,0.9,select_create,Bird_5738_Truck_9324,0.9,
259,321,reconstruction,9,226883,g9qa24sowtky6t3,6343e0dafaf3e94eaa001ae4,8,10084.700000000186,,,,,,,,,,0.5,0.9,select_create,Airplane_3497_Ship_8913,0.9,
260,322,reconstruction,10,237161,g9qa24sowtky6t3,6343e0dafaf3e94eaa001ae4,8,10275.299999999814,,,,,,,,,,0.3,0.9,select_create,Automobile_2645_Dog_4764,0.9,
261,323,reconstruction,11,248262,g9qa24sowtky6t3,6343e0dafaf3e94eaa001ae4,8,11097.899999999909,,,,,,,,,,0.5000000000000001,0.9,select_create,Airplane_8925_Bird_751,0.9,
262,324,reconstruction,12,259293,g9qa24sowtky6t3,6343e0dafaf3e94eaa001ae4,8,11028.5,,,,,,,,,,0.5000000000000001,0.9,select_create,Dog_6127_Frog_9569,0.9,
263,325,reconstruction,13,267593,g9qa24sowtky6t3,6343e0dafaf3e94eaa001ae4,8,8297.80000000028,,,,,,,,,,0.5,0.9,select_create,Deer_1821_Ship_3686,0.9,
264,326,reconstruction,14,275131,g9qa24sowtky6t3,6343e0dafaf3e94eaa001ae4,8,7535.5,,,,,,,,,,0.6,0.9,select_create,Frog_3446_Ship_6737,0.9,
265,327,reconstruction,15,284641,g9qa24sowtky6t3,6343e0dafaf3e94eaa001ae4,8,9506.5,,,,,,,,,,0.7,0.9,select_create,Airplane_6985_Cat_1612,0.9,
266,328,reconstruction,16,291546,g9qa24sowtky6t3,6343e0dafaf3e94eaa001ae4,8,6902.299999999814,,,,,,,,,,0.6,0.9,select_create,Frog_2702_Horse_1780,0.9,
267,329,reconstruction,17,298223,g9qa24sowtky6t3,6343e0dafaf3e94eaa001ae4,8,6674.300000000279,,,,,,,,,,0.6,0.9,select_create,Horse_1934_Ship_6296,0.9,
268,330,reconstruction,18,304604,g9qa24sowtky6t3,6343e0dafaf3e94eaa001ae4,8,6377.600000000093,,,,,,,,,,0.4,0.9,select_create,Dog_5692_Truck_585,0.9,
269,331,reconstruction,19,311607,g9qa24sowtky6t3,6343e0dafaf3e94eaa001ae4,8,7000.399999999907,,,,,,,,,,0.6,0.9,select_create,Airplane_778_Frog_7183,0.9,
270,332,reconstruction,20,320365,g9qa24sowtky6t3,6343e0dafaf3e94eaa001ae4,8,8755.0,,,,,,,,,,0.5,0.9,select_create,Dog_8170_Frog_6693,0.9,
271,333,reconstruction,21,328024,g9qa24sowtky6t3,6343e0dafaf3e94eaa001ae4,8,7655.799999999814,,,,,,,,,,0.6000000000000001,0.9,select_create,Airplane_8777_Truck_139,0.9,
272,334,reconstruction,22,337217,g9qa24sowtky6t3,6343e0dafaf3e94eaa001ae4,8,9188.799999999814,,,,,,,,,,0.5,0.9,select_create,Dog_2525_Truck_1082,0.9,
273,335,reconstruction,23,348008,g9qa24sowtky6t3,6343e0dafaf3e94eaa001ae4,8,10787.899999999909,,,,,,,,,,0.4,0.9,select_create,Automobile_6742_Cat_6311,0.9,
274,336,reconstruction,24,357227,g9qa24sowtky6t3,6343e0dafaf3e94eaa001ae4,8,9215.400000000373,,,,,,,,,,0.5,0.9,select_create,Bird_755_Horse_3890,0.9,
275,337,reconstruction,25,364589,g9qa24sowtky6t3,6343e0dafaf3e94eaa001ae4,8,7360.399999999907,,,,,,,,,,0.4,0.9,select_create,Automobile_2607_Ship_3151,0.9,
276,338,reconstruction,26,370977,g9qa24sowtky6t3,6343e0dafaf3e94eaa001ae4,8,6384.899999999907,,,,,,,,,,0.5000000000000001,0.9,select_create,Bird_5085_Horse_1169,0.9,
277,339,reconstruction,27,382738,g9qa24sowtky6t3,6343e0dafaf3e94eaa001ae4,8,11758.700000000186,,,,,,,,,,0.3,0.9,select_create,Automobile_5108_Ship_6602,0.9,
278,340,reconstruction,28,389673,g9qa24sowtky6t3,6343e0dafaf3e94eaa001ae4,8,6932.299999999814,,,,,,,,,,0.5000000000000001,0.9,select_create,Horse_87_Truck_3409,0.9,
279,341,reconstruction,29,394097,g9qa24sowtky6t3,6343e0dafaf3e94eaa001ae4,8,4422.600000000093,,,,,,,,,,0.4000000000000001,0.9,select_create,Bird_1196_Horse_643,0.9,
280,342,reconstruction,30,400797,g9qa24sowtky6t3,6343e0dafaf3e94eaa001ae4,8,6696.800000000279,,,,,,,,,,0.5000000000000001,0.9,select_create,Deer_9715_Dog_1854,0.9,
281,343,reconstruction,31,407001,g9qa24sowtky6t3,6343e0dafaf3e94eaa001ae4,8,6201.0,,,,,,,,,,0.4,0.9,select_create,Airplane_6494_Deer_3507,0.9,
282,344,reconstruction,32,416602,g9qa24sowtky6t3,6343e0dafaf3e94eaa001ae4,8,9597.30000000028,,,,,,,,,,0.6000000000000001,0.9,select_create,Deer_6992_Dog_7828,0.9,
283,345,reconstruction,33,422795,g9qa24sowtky6t3,6343e0dafaf3e94eaa001ae4,8,6191.300000000279,,,,,,,,,,0.6,0.9,select_create,Deer_9393_Truck_4588,0.9,
284,346,reconstruction,34,427131,g9qa24sowtky6t3,6343e0dafaf3e94eaa001ae4,8,4334.299999999814,,,,,,,,,,0.5000000000000001,0.9,select_create,Airplane_6118_Deer_6855,0.9,
285,347,reconstruction,35,437144,g9qa24sowtky6t3,6343e0dafaf3e94eaa001ae4,8,10009.399999999909,,,,,,,,,,0.7,0.9,select_create,Dog_8045_Frog_9641,0.9,
286,348,reconstruction,36,453828,g9qa24sowtky6t3,6343e0dafaf3e94eaa001ae4,8,16680.5,,,,,,,,,,0.6000000000000001,0.9,rerun_select_create,Airplane_8925_Bird_751,0.9,
287,349,reconstruction,37,460111,g9qa24sowtky6t3,6343e0dafaf3e94eaa001ae4,8,6280.299999999814,,,,,,,,,,0.6000000000000001,0.9,rerun_select_create,Frog_2702_Horse_1780,0.9,
288,357,reconstruction,6,221365,ozffgkbjvohnvv3,633e12745ad6680bd85cd356,4,48658.60000000056,,,,,,,,,,0.4,0.1,select_create,Dog_3748_Horse_5690,0.1,
289,358,reconstruction,7,266628,ozffgkbjvohnvv3,633e12745ad6680bd85cd356,4,45246.60000000056,,,,,,,,,,0.5000000000000001,0.1,select_create,Ship_337_Truck_2305,0.1,
290,359,reconstruction,8,284890,ozffgkbjvohnvv3,633e12745ad6680bd85cd356,4,18249.599999999627,,,,,,,,,,0.8,0.1,select_create,Airplane_1719_Automobile_4425,0.1,
291,360,reconstruction,9,297989,ozffgkbjvohnvv3,633e12745ad6680bd85cd356,4,13081.5,,,,,,,,,,0.5000000000000001,0.1,select_create,Cat_3572_Dog_6564,0.1,
292,361,reconstruction,10,308343,ozffgkbjvohnvv3,633e12745ad6680bd85cd356,4,10340.599999999627,,,,,,,,,,0.4,0.1,select_create,Airplane_8909_Dog_1793,0.1,
293,362,reconstruction,11,321443,ozffgkbjvohnvv3,633e12745ad6680bd85cd356,4,13094.39999999944,,,,,,,,,,0.6,0.1,select_create,Ship_8441_Truck_5521,0.1,
294,363,reconstruction,12,330530,ozffgkbjvohnvv3,633e12745ad6680bd85cd356,4,9074.39999999944,,,,,,,,,,0.6,0.1,select_create,Automobile_3370_Horse_2734,0.1,
295,364,reconstruction,13,340845,ozffgkbjvohnvv3,633e12745ad6680bd85cd356,4,10301.60000000056,,,,,,,,,,0.4000000000000001,0.1,select_create,Bird_4873_Deer_4677,0.1,
296,365,reconstruction,14,351844,ozffgkbjvohnvv3,633e12745ad6680bd85cd356,4,10985.400000000373,,,,,,,,,,0.6,0.1,select_create,Automobile_2712_Truck_2433,0.1,
297,366,reconstruction,15,359341,ozffgkbjvohnvv3,633e12745ad6680bd85cd356,4,7483.5999999996275,,,,,,,,,,0.6,0.1,select_create,Deer_9711_Horse_3187,0.1,
298,367,reconstruction,16,370724,ozffgkbjvohnvv3,633e12745ad6680bd85cd356,4,11369.89999999944,,,,,,,,,,0.6,0.1,select_create,Dog_478_Truck_9099,0.1,
299,368,reconstruction,17,379110,ozffgkbjvohnvv3,633e12745ad6680bd85cd356,4,8367.299999999814,,,,,,,,,,0.5,0.1,select_create,Automobile_2484_Truck_1697,0.1,
300,369,reconstruction,18,386036,ozffgkbjvohnvv3,633e12745ad6680bd85cd356,4,6913.899999999441,,,,,,,,,,0.6000000000000001,0.1,select_create,Airplane_4216_Horse_6266,0.1,
301,370,reconstruction,19,398909,ozffgkbjvohnvv3,633e12745ad6680bd85cd356,4,12860.400000000373,,,,,,,,,,0.7000000000000001,0.1,select_create,Airplane_74_Dog_3610,0.1,
302,371,reconstruction,20,416313,ozffgkbjvohnvv3,633e12745ad6680bd85cd356,4,17392.799999999814,,,,,,,,,,0.4000000000000001,0.1,select_create,Automobile_3553_Horse_7751,0.1,
303,372,reconstruction,21,432736,ozffgkbjvohnvv3,633e12745ad6680bd85cd356,4,16410.799999999814,,,,,,,,,,0.6000000000000001,0.1,select_create,Ship_3357_Truck_5958,0.1,
304,373,reconstruction,22,441599,ozffgkbjvohnvv3,633e12745ad6680bd85cd356,4,8847.700000000186,,,,,,,,,,0.4,0.1,select_create,Airplane_4040_Bird_2097,0.1,
305,374,reconstruction,23,453429,ozffgkbjvohnvv3,633e12745ad6680bd85cd356,4,11818.0,,,,,,,,,,0.6,0.1,select_create,Bird_6145_Cat_7399,0.1,
306,375,reconstruction,24,464800,ozffgkbjvohnvv3,633e12745ad6680bd85cd356,4,11358.799999999814,,,,,,,,,,0.5000000000000001,0.1,select_create,Cat_78_Deer_1015,0.1,
307,376,reconstruction,25,477164,ozffgkbjvohnvv3,633e12745ad6680bd85cd356,4,12352.599999999627,,,,,,,,,,0.6,0.1,select_create,Bird_3934_Dog_6890,0.1,
308,377,reconstruction,26,492581,ozffgkbjvohnvv3,633e12745ad6680bd85cd356,4,15405.299999999814,,,,,,,,,,0.7000000000000001,0.1,select_create,Bird_2383_Dog_9098,0.1,
309,378,reconstruction,27,514007,ozffgkbjvohnvv3,633e12745ad6680bd85cd356,4,21415.099999999627,,,,,,,,,,0.6000000000000001,0.1,select_create,Cat_4652_Truck_4550,0.1,
310,379,reconstruction,28,525539,ozffgkbjvohnvv3,633e12745ad6680bd85cd356,4,11521.10000000056,,,,,,,,,,0.7000000000000001,0.1,select_create,Deer_8086_Truck_4952,0.1,
311,380,reconstruction,29,543605,ozffgkbjvohnvv3,633e12745ad6680bd85cd356,4,18052.599999999627,,,,,,,,,,0.5000000000000001,0.1,select_create,Cat_4346_Truck_4932,0.1,
312,381,reconstruction,30,554263,ozffgkbjvohnvv3,633e12745ad6680bd85cd356,4,10645.10000000056,,,,,,,,,,0.4,0.1,select_create,Automobile_366_Dog_8115,0.1,
313,382,reconstruction,31,565038,ozffgkbjvohnvv3,633e12745ad6680bd85cd356,4,10762.200000000186,,,,,,,,,,0.3,0.1,select_create,Bird_7821_Ship_2380,0.1,
314,383,reconstruction,32,574682,ozffgkbjvohnvv3,633e12745ad6680bd85cd356,4,9632.299999999814,,,,,,,,,,0.5,0.1,select_create,Airplane_4824_Truck_4719,0.1,
315,384,reconstruction,33,587601,ozffgkbjvohnvv3,633e12745ad6680bd85cd356,4,12907.699999999257,,,,,,,,,,0.3,0.1,select_create,Automobile_947_Cat_4760,0.1,
316,385,reconstruction,34,600010,ozffgkbjvohnvv3,633e12745ad6680bd85cd356,4,12395.60000000056,,,,,,,,,,0.6000000000000001,0.1,select_create,Deer_1945_Dog_9376,0.1,
317,386,reconstruction,35,607381,ozffgkbjvohnvv3,633e12745ad6680bd85cd356,4,7359.399999999441,,,,,,,,,,0.5,0.1,select_create,Automobile_4549_Cat_1377,0.1,
318,387,reconstruction,36,617291,ozffgkbjvohnvv3,633e12745ad6680bd85cd356,4,9904.099999999627,,,,,,,,,,0.6000000000000001,0.1,rerun_select_create,Ship_8441_Truck_5521,0.1,
319,388,reconstruction,37,627778,ozffgkbjvohnvv3,633e12745ad6680bd85cd356,4,10474.89999999944,,,,,,,,,,0.5,0.1,rerun_select_create,Dog_478_Truck_9099,0.1,
320,396,reconstruction,6,103712,gm4ydxaswrkymx2,633e12745ad6680bd85cd356,6,25771.90000000596,,,,,,,,,,0.5000000000000001,0.9,select_create,Airplane_4591_Dog_6199,0.9,
321,397,reconstruction,7,116472,gm4ydxaswrkymx2,633e12745ad6680bd85cd356,6,12757.0,,,,,,,,,,0.7000000000000001,0.9,select_create,Deer_5957_Horse_5314,0.9,
322,398,reconstruction,8,119744,gm4ydxaswrkymx2,633e12745ad6680bd85cd356,6,3270.7999999821186,,,,,,,,,,0.6000000000000001,0.9,select_create,Airplane_6648_Deer_6617,0.9,
323,399,reconstruction,9,122712,gm4ydxaswrkymx2,633e12745ad6680bd85cd356,6,2966.7999999821186,,,,,,,,,,0.6000000000000001,0.9,select_create,Horse_3327_Ship_9834,0.9,
324,400,reconstruction,10,125376,gm4ydxaswrkymx2,633e12745ad6680bd85cd356,6,2662.5999999940395,,,,,,,,,,0.6000000000000001,0.9,select_create,Bird_5261_Truck_2184,0.9,
325,401,reconstruction,11,131784,gm4ydxaswrkymx2,633e12745ad6680bd85cd356,6,6407.0,,,,,,,,,,0.5000000000000001,0.9,select_create,Deer_3203_Ship_3821,0.9,
326,402,reconstruction,12,134400,gm4ydxaswrkymx2,633e12745ad6680bd85cd356,6,2614.699999988079,,,,,,,,,,0.5000000000000001,0.9,select_create,Airplane_3258_Truck_3141,0.9,
327,403,reconstruction,13,137800,gm4ydxaswrkymx2,633e12745ad6680bd85cd356,6,3399.0999999940395,,,,,,,,,,0.6000000000000001,0.9,select_create,Cat_6102_Horse_4538,0.9,
328,404,reconstruction,14,140208,gm4ydxaswrkymx2,633e12745ad6680bd85cd356,6,2406.7999999821186,,,,,,,,,,0.6000000000000001,0.9,select_create,Airplane_9515_Horse_2888,0.9,
329,405,reconstruction,15,143792,gm4ydxaswrkymx2,633e12745ad6680bd85cd356,6,3582.7999999821186,,,,,,,,,,0.5000000000000001,0.9,select_create,Bird_497_Ship_4539,0.9,
330,406,reconstruction,16,146200,gm4ydxaswrkymx2,633e12745ad6680bd85cd356,6,2406.7999999821186,,,,,,,,,,0.6000000000000001,0.9,select_create,Cat_4687_Truck_5335,0.9,
331,407,reconstruction,17,150888,gm4ydxaswrkymx2,633e12745ad6680bd85cd356,6,4687.09999999404,,,,,,,,,,0.5000000000000001,0.9,select_create,Automobile_8584_Bird_1955,0.9,
332,408,reconstruction,18,152768,gm4ydxaswrkymx2,633e12745ad6680bd85cd356,6,1878.7999999821184,,,,,,,,,,0.6000000000000001,0.9,select_create,Bird_2531_Cat_7015,0.9,
333,409,reconstruction,19,155232,gm4ydxaswrkymx2,633e12745ad6680bd85cd356,6,2463.0,,,,,,,,,,0.5000000000000001,0.9,select_create,Bird_6109_Horse_8918,0.9,
334,410,reconstruction,20,161288,gm4ydxaswrkymx2,633e12745ad6680bd85cd356,6,6054.799999982119,,,,,,,,,,0.4000000000000001,0.9,select_create,Cat_8778_Dog_8316,0.9,
335,411,reconstruction,21,165048,gm4ydxaswrkymx2,633e12745ad6680bd85cd356,6,3758.299999982119,,,,,,,,,,0.4000000000000001,0.9,select_create,Frog_3400_Ship_8441,0.9,
336,412,reconstruction,22,168976,gm4ydxaswrkymx2,633e12745ad6680bd85cd356,6,3926.799999982119,,,,,,,,,,0.4000000000000001,0.9,select_create,Automobile_6940_Dog_8079,0.9,
337,413,reconstruction,23,172672,gm4ydxaswrkymx2,633e12745ad6680bd85cd356,6,3695.0,,,,,,,,,,0.5000000000000001,0.9,select_create,Bird_7831_Ship_2196,0.9,
338,414,reconstruction,24,176408,gm4ydxaswrkymx2,633e12745ad6680bd85cd356,6,3734.799999982119,,,,,,,,,,0.4000000000000001,0.9,select_create,Dog_9939_Ship_2604,0.9,
339,415,reconstruction,25,179352,gm4ydxaswrkymx2,633e12745ad6680bd85cd356,6,2942.5999999940395,,,,,,,,,,0.6000000000000001,0.9,select_create,Cat_5925_Deer_9981,0.9,
340,416,reconstruction,26,182560,gm4ydxaswrkymx2,633e12745ad6680bd85cd356,6,3207.0999999940395,,,,,,,,,,0.6000000000000001,0.9,select_create,Airplane_8812_Bird_3076,0.9,
341,417,reconstruction,27,186328,gm4ydxaswrkymx2,633e12745ad6680bd85cd356,6,3767.0,,,,,,,,,,0.6000000000000001,0.9,select_create,Frog_3588_Ship_404,0.9,
342,418,reconstruction,28,189840,gm4ydxaswrkymx2,633e12745ad6680bd85cd356,6,3510.7999999821186,,,,,,,,,,0.5000000000000001,0.9,select_create,Airplane_9499_Cat_6827,0.9,
343,419,reconstruction,29,194104,gm4ydxaswrkymx2,633e12745ad6680bd85cd356,6,4263.0,,,,,,,,,,0.4000000000000001,0.9,select_create,Dog_6297_Frog_9150,0.9,
344,420,reconstruction,30,196472,gm4ydxaswrkymx2,633e12745ad6680bd85cd356,6,2366.5999999940395,,,,,,,,,,0.7000000000000001,0.9,select_create,Frog_3349_Horse_1560,0.9,
345,421,reconstruction,31,199896,gm4ydxaswrkymx2,633e12745ad6680bd85cd356,6,3423.0,,,,,,,,,,0.6000000000000001,0.9,select_create,Frog_3160_Truck_7113,0.9,
346,422,reconstruction,32,204104,gm4ydxaswrkymx2,633e12745ad6680bd85cd356,6,4206.699999988079,,,,,,,,,,0.7000000000000001,0.9,select_create,Automobile_4128_Cat_205,0.9,
347,423,reconstruction,33,206184,gm4ydxaswrkymx2,633e12745ad6680bd85cd356,6,2079.0,,,,,,,,,,0.6000000000000001,0.9,select_create,Automobile_6464_Dog_6904,0.9,
348,424,reconstruction,34,209480,gm4ydxaswrkymx2,633e12745ad6680bd85cd356,6,3295.0999999940395,,,,,,,,,,0.6000000000000001,0.9,select_create,Automobile_4841_Deer_954,0.9,
349,425,reconstruction,35,212008,gm4ydxaswrkymx2,633e12745ad6680bd85cd356,6,2527.300000011921,,,,,,,,,,0.4000000000000001,0.9,select_create,Bird_2746_Ship_5257,0.9,
350,426,reconstruction,36,214328,gm4ydxaswrkymx2,633e12745ad6680bd85cd356,6,2318.7999999821186,,,,,,,,,,0.5000000000000001,0.9,rerun_select_create,Deer_3203_Ship_3821,0.9,
351,427,reconstruction,37,216320,gm4ydxaswrkymx2,633e12745ad6680bd85cd356,6,1991.0,,,,,,,,,,0.6000000000000001,0.9,rerun_select_create,Cat_4687_Truck_5335,0.9,
352,435,reconstruction,6,464425,zvrwt787892jufk,633e12745ad6680bd85cd356,4,136529.19999998808,,,,,,,,,,0.2000000000000001,0.1,select_create,Deer_1945_Dog_9376,0.1,
353,436,reconstruction,7,515094,zvrwt787892jufk,633e12745ad6680bd85cd356,4,50666.40000000596,,,,,,,,,,0.7999999999999999,0.1,select_create,Cat_4346_Truck_4932,0.1,
354,437,reconstruction,8,573797,zvrwt787892jufk,633e12745ad6680bd85cd356,4,58699.79999999702,,,,,,,,,,0.7000000000000001,0.1,select_create,Bird_2383_Dog_9098,0.1,
355,438,reconstruction,9,612336,zvrwt787892jufk,633e12745ad6680bd85cd356,4,38536.40000000596,,,,,,,,,,0.7,0.1,select_create,Ship_8441_Truck_5521,0.1,
356,439,reconstruction,10,639639,zvrwt787892jufk,633e12745ad6680bd85cd356,4,27300.20000000298,,,,,,,,,,0.5,0.1,select_create,Airplane_8909_Dog_1793,0.1,
357,440,reconstruction,11,786344,zvrwt787892jufk,633e12745ad6680bd85cd356,4,146702.39999999106,,,,,,,,,,0.4000000000000001,0.1,select_create,Automobile_947_Cat_4760,0.1,
358,441,reconstruction,12,805753,zvrwt787892jufk,633e12745ad6680bd85cd356,4,19406.59999999404,,,,,,,,,,0.7,0.1,select_create,Airplane_74_Dog_3610,0.1,
359,442,reconstruction,13,829516,zvrwt787892jufk,633e12745ad6680bd85cd356,4,23759.89999999106,,,,,,,,,,0.4,0.1,select_create,Bird_7821_Ship_2380,0.1,
360,443,reconstruction,14,852879,zvrwt787892jufk,633e12745ad6680bd85cd356,4,23361.20000000298,,,,,,,,,,0.5000000000000001,0.1,select_create,Airplane_4040_Bird_2097,0.1,
361,444,reconstruction,15,880743,zvrwt787892jufk,633e12745ad6680bd85cd356,4,27861.70000000298,,,,,,,,,,0.6000000000000001,0.1,select_create,Cat_3572_Dog_6564,0.1,
362,445,reconstruction,16,897218,zvrwt787892jufk,633e12745ad6680bd85cd356,4,16472.40000000596,,,,,,,,,,0.6,0.1,select_create,Ship_3357_Truck_5958,0.1,
363,446,reconstruction,17,919463,zvrwt787892jufk,633e12745ad6680bd85cd356,4,22242.5,,,,,,,,,,0.5,0.1,select_create,Airplane_1719_Automobile_4425,0.1,
364,447,reconstruction,18,938033,zvrwt787892jufk,633e12745ad6680bd85cd356,4,18567.79999999702,,,,,,,,,,0.5000000000000001,0.1,select_create,Automobile_3370_Horse_2734,0.1,
365,448,reconstruction,19,952070,zvrwt787892jufk,633e12745ad6680bd85cd356,4,14034.70000000298,,,,,,,,,,0.4,0.1,select_create,Bird_4873_Deer_4677,0.1,
366,449,reconstruction,20,972222,zvrwt787892jufk,633e12745ad6680bd85cd356,4,20149.09999999404,,,,,,,,,,0.5,0.1,select_create,Automobile_2484_Truck_1697,0.1,
367,450,reconstruction,21,983553,zvrwt787892jufk,633e12745ad6680bd85cd356,4,11329.59999999404,,,,,,,,,,0.6000000000000001,0.1,select_create,Deer_9711_Horse_3187,0.1,
368,451,reconstruction,22,993401,zvrwt787892jufk,633e12745ad6680bd85cd356,4,9845.0,,,,,,,,,,0.7000000000000001,0.1,select_create,Cat_4652_Truck_4550,0.1,
369,452,reconstruction,23,1005092,zvrwt787892jufk,633e12745ad6680bd85cd356,4,11688.90000000596,,,,,,,,,,0.6000000000000001,0.1,select_create,Bird_3934_Dog_6890,0.1,
370,453,reconstruction,24,1011459,zvrwt787892jufk,633e12745ad6680bd85cd356,4,6364.79999999702,,,,,,,,,,0.5,0.1,select_create,Automobile_4549_Cat_1377,0.1,
371,454,reconstruction,25,1107278,zvrwt787892jufk,633e12745ad6680bd85cd356,4,95816.20000000298,,,,,,,,,,0.5,0.1,select_create,Bird_6145_Cat_7399,0.1,
372,455,reconstruction,26,1118418,zvrwt787892jufk,633e12745ad6680bd85cd356,4,11138.30000001192,,,,,,,,,,0.5000000000000001,0.1,select_create,Automobile_366_Dog_8115,0.1,
373,456,reconstruction,27,1126512,zvrwt787892jufk,633e12745ad6680bd85cd356,4,8091.79999999702,,,,,,,,,,0.6000000000000001,0.1,select_create,Airplane_4216_Horse_6266,0.1,
374,457,reconstruction,28,1136481,zvrwt787892jufk,633e12745ad6680bd85cd356,4,9966.70000000298,,,,,,,,,,0.6000000000000001,0.1,select_create,Dog_478_Truck_9099,0.1,
375,458,reconstruction,29,1148984,zvrwt787892jufk,633e12745ad6680bd85cd356,4,12501.10000000894,,,,,,,,,,0.6000000000000001,0.1,select_create,Automobile_2712_Truck_2433,0.1,
376,459,reconstruction,30,1158378,zvrwt787892jufk,633e12745ad6680bd85cd356,4,9391.0,,,,,,,,,,0.5000000000000001,0.1,select_create,Airplane_4824_Truck_4719,0.1,
377,460,reconstruction,31,1177279,zvrwt787892jufk,633e12745ad6680bd85cd356,4,18898.0,,,,,,,,,,0.5000000000000001,0.1,select_create,Ship_337_Truck_2305,0.1,
378,461,reconstruction,32,1187461,zvrwt787892jufk,633e12745ad6680bd85cd356,4,10180.09999999404,,,,,,,,,,0.6000000000000001,0.1,select_create,Deer_8086_Truck_4952,0.1,
379,462,reconstruction,33,1203351,zvrwt787892jufk,633e12745ad6680bd85cd356,4,15888.20000000298,,,,,,,,,,0.5000000000000001,0.1,select_create,Cat_78_Deer_1015,0.1,
380,463,reconstruction,34,1223239,zvrwt787892jufk,633e12745ad6680bd85cd356,4,19885.70000000298,,,,,,,,,,0.4000000000000001,0.1,select_create,Automobile_3553_Horse_7751,0.1,
381,464,reconstruction,35,1243521,zvrwt787892jufk,633e12745ad6680bd85cd356,4,20280.0,,,,,,,,,,0.5000000000000001,0.1,select_create,Dog_3748_Horse_5690,0.1,
382,465,reconstruction,36,1254047,zvrwt787892jufk,633e12745ad6680bd85cd356,4,10524.0,,,,,,,,,,0.4,0.1,rerun_select_create,Automobile_947_Cat_4760,0.1,
383,466,reconstruction,37,1273656,zvrwt787892jufk,633e12745ad6680bd85cd356,4,19605.80000001192,,,,,,,,,,0.5000000000000001,0.1,rerun_select_create,Ship_3357_Truck_5958,0.1,
384,474,reconstruction,6,327749,potn14ztjg90fxr,633e12745ad6680bd85cd356,4,45364.0,,,,,,,,,,0.6000000000000001,0.9,select_create,Cat_78_Deer_1015,0.9,
385,475,reconstruction,7,339522,potn14ztjg90fxr,633e12745ad6680bd85cd356,4,11770.400000035765,,,,,,,,,,0.4,0.9,select_create,Automobile_3370_Horse_2734,0.9,
386,476,reconstruction,8,360972,potn14ztjg90fxr,633e12745ad6680bd85cd356,4,21447.30000001192,,,,,,,,,,0.5,0.9,select_create,Airplane_4824_Truck_4719,0.9,
387,477,reconstruction,9,369486,potn14ztjg90fxr,633e12745ad6680bd85cd356,4,8512.200000047684,,,,,,,,,,0.7000000000000001,0.9,select_create,Airplane_8909_Dog_1793,0.9,
388,478,reconstruction,10,379536,potn14ztjg90fxr,633e12745ad6680bd85cd356,4,10047.80000001192,,,,,,,,,,0.4,0.9,select_create,Deer_8086_Truck_4952,0.9,
389,479,reconstruction,11,387952,potn14ztjg90fxr,633e12745ad6680bd85cd356,4,8413.899999976158,,,,,,,,,,0.4,0.9,select_create,Deer_1945_Dog_9376,0.9,
390,480,reconstruction,12,398474,potn14ztjg90fxr,633e12745ad6680bd85cd356,4,10519.69999998808,,,,,,,,,,0.5,0.9,select_create,Automobile_3553_Horse_7751,0.9,
391,481,reconstruction,13,405521,potn14ztjg90fxr,633e12745ad6680bd85cd356,4,7044.5,,,,,,,,,,0.6000000000000001,0.9,select_create,Automobile_947_Cat_4760,0.9,
392,482,reconstruction,14,413918,potn14ztjg90fxr,633e12745ad6680bd85cd356,4,8395.600000023842,,,,,,,,,,0.6000000000000001,0.9,select_create,Airplane_1719_Automobile_4425,0.9,
393,483,reconstruction,15,420294,potn14ztjg90fxr,633e12745ad6680bd85cd356,4,6373.099999964237,,,,,,,,,,0.4,0.9,select_create,Ship_8441_Truck_5521,0.9,
394,484,reconstruction,16,429698,potn14ztjg90fxr,633e12745ad6680bd85cd356,4,9402.69999998808,,,,,,,,,,0.4,0.9,select_create,Automobile_4549_Cat_1377,0.9,
395,485,reconstruction,17,435133,potn14ztjg90fxr,633e12745ad6680bd85cd356,4,5433.099999964237,,,,,,,,,,0.6000000000000001,0.9,select_create,Airplane_4040_Bird_2097,0.9,
396,486,reconstruction,18,441277,potn14ztjg90fxr,633e12745ad6680bd85cd356,4,6141.899999976158,,,,,,,,,,0.4,0.9,select_create,Cat_4652_Truck_4550,0.9,
397,487,reconstruction,19,443958,potn14ztjg90fxr,633e12745ad6680bd85cd356,4,2679.900000035763,,,,,,,,,,0.5000000000000001,0.9,select_create,Automobile_366_Dog_8115,0.9,
398,488,reconstruction,20,446490,potn14ztjg90fxr,633e12745ad6680bd85cd356,4,2530.800000011921,,,,,,,,,,0.5000000000000001,0.9,select_create,Cat_4346_Truck_4932,0.9,
399,489,reconstruction,21,451568,potn14ztjg90fxr,633e12745ad6680bd85cd356,4,5076.699999988079,,,,,,,,,,0.5000000000000001,0.9,select_create,Airplane_4216_Horse_6266,0.9,
400,490,reconstruction,22,454100,potn14ztjg90fxr,633e12745ad6680bd85cd356,4,2529.0,,,,,,,,,,0.5000000000000001,0.9,select_create,Ship_3357_Truck_5958,0.9,
401,491,reconstruction,23,471044,potn14ztjg90fxr,633e12745ad6680bd85cd356,4,16943.0,,,,,,,,,,0.5,0.9,select_create,Bird_6145_Cat_7399,0.9,
402,492,reconstruction,24,479966,potn14ztjg90fxr,633e12745ad6680bd85cd356,4,8919.299999952316,,,,,,,,,,0.6,0.9,select_create,Airplane_74_Dog_3610,0.9,
403,493,reconstruction,25,485988,potn14ztjg90fxr,633e12745ad6680bd85cd356,4,6019.399999976158,,,,,,,,,,0.3,0.9,select_create,Automobile_2712_Truck_2433,0.9,
404,494,reconstruction,26,491330,potn14ztjg90fxr,633e12745ad6680bd85cd356,4,5340.5,,,,,,,,,,0.4,0.9,select_create,Bird_4873_Deer_4677,0.9,
405,495,reconstruction,27,494398,potn14ztjg90fxr,633e12745ad6680bd85cd356,4,3065.800000011921,,,,,,,,,,0.6000000000000001,0.9,select_create,Bird_2383_Dog_9098,0.9,
406,496,reconstruction,28,496846,potn14ztjg90fxr,633e12745ad6680bd85cd356,4,2445.899999976158,,,,,,,,,,0.5000000000000001,0.9,select_create,Cat_3572_Dog_6564,0.9,
407,497,reconstruction,29,500088,potn14ztjg90fxr,633e12745ad6680bd85cd356,4,3240.5,,,,,,,,,,0.6000000000000001,0.9,select_create,Bird_3934_Dog_6890,0.9,
408,498,reconstruction,30,502860,potn14ztjg90fxr,633e12745ad6680bd85cd356,4,2770.399999976158,,,,,,,,,,0.6000000000000001,0.9,select_create,Deer_9711_Horse_3187,0.9,
409,499,reconstruction,31,505006,potn14ztjg90fxr,633e12745ad6680bd85cd356,4,2144.600000023842,,,,,,,,,,0.5000000000000001,0.9,select_create,Ship_337_Truck_2305,0.9,
410,500,reconstruction,32,508210,potn14ztjg90fxr,633e12745ad6680bd85cd356,4,3202.400000035763,,,,,,,,,,0.5000000000000001,0.9,select_create,Automobile_2484_Truck_1697,0.9,
411,501,reconstruction,33,510638,potn14ztjg90fxr,633e12745ad6680bd85cd356,4,2426.199999988079,,,,,,,,,,0.5000000000000001,0.9,select_create,Bird_7821_Ship_2380,0.9,
412,502,reconstruction,34,513724,potn14ztjg90fxr,633e12745ad6680bd85cd356,4,3084.300000011921,,,,,,,,,,0.5000000000000001,0.9,select_create,Dog_478_Truck_9099,0.9,
413,503,reconstruction,35,516648,potn14ztjg90fxr,633e12745ad6680bd85cd356,4,2922.400000035763,,,,,,,,,,0.5000000000000001,0.9,select_create,Dog_3748_Horse_5690,0.9,
414,504,reconstruction,36,519333,potn14ztjg90fxr,633e12745ad6680bd85cd356,4,2683.600000023842,,,,,,,,,,0.7000000000000001,0.9,rerun_select_create,Deer_1945_Dog_9376,0.9,
415,505,reconstruction,37,522778,potn14ztjg90fxr,633e12745ad6680bd85cd356,4,3443.300000011921,,,,,,,,,,0.6000000000000001,0.9,rerun_select_create,Automobile_4549_Cat_1377,0.9,
416,513,reconstruction,6,206888,o7t2luzeyz852j8,633e12745ad6680bd85cd356,0,102217.0,,,,,,,,,,0.5,0.1,select_create,Bird_1723_Deer_7654,0.1,
417,514,reconstruction,7,251695,o7t2luzeyz852j8,633e12745ad6680bd85cd356,0,44803.90000003576,,,,,,,,,,0.5,0.1,select_create,Cat_7496_Ship_260,0.1,
418,515,reconstruction,8,323837,o7t2luzeyz852j8,633e12745ad6680bd85cd356,0,72139.79999995232,,,,,,,,,,0.6,0.1,select_create,Automobile_9197_Deer_8914,0.1,
419,516,reconstruction,9,364808,o7t2luzeyz852j8,633e12745ad6680bd85cd356,0,40969.0,,,,,,,,,,0.5,0.1,select_create,Airplane_6491_Frog_8781,0.1,
420,517,reconstruction,10,391868,o7t2luzeyz852j8,633e12745ad6680bd85cd356,0,27057.5,,,,,,,,,,0.5000000000000001,0.1,select_create,Automobile_2504_Dog_9098,0.1,
421,518,reconstruction,11,427156,o7t2luzeyz852j8,633e12745ad6680bd85cd356,0,35286.0,,,,,,,,,,0.4,0.1,select_create,Automobile_3066_Ship_959,0.1,
422,519,reconstruction,12,455798,o7t2luzeyz852j8,633e12745ad6680bd85cd356,0,28639.10000002384,,,,,,,,,,0.7000000000000001,0.1,select_create,Cat_6647_Horse_7703,0.1,
423,520,reconstruction,13,520873,o7t2luzeyz852j8,633e12745ad6680bd85cd356,0,65073.19999998808,,,,,,,,,,0.5,0.1,select_create,Bird_6519_Cat_1445,0.1,
424,521,reconstruction,14,587163,o7t2luzeyz852j8,633e12745ad6680bd85cd356,0,66287.0,,,,,,,,,,0.5,0.1,select_create,Deer_9393_Truck_4588,0.1,
425,522,reconstruction,15,635676,o7t2luzeyz852j8,633e12745ad6680bd85cd356,0,48509.60000002384,,,,,,,,,,0.3,0.1,select_create,Automobile_5079_Deer_5654,0.1,
426,523,reconstruction,16,658023,o7t2luzeyz852j8,633e12745ad6680bd85cd356,0,22344.69999998808,,,,,,,,,,0.5,0.1,select_create,Deer_583_Horse_6667,0.1,
427,524,reconstruction,17,690586,o7t2luzeyz852j8,633e12745ad6680bd85cd356,0,32560.30000001192,,,,,,,,,,0.5,0.1,select_create,Deer_6753_Frog_1578,0.1,
428,525,reconstruction,18,710222,o7t2luzeyz852j8,633e12745ad6680bd85cd356,0,19634.09999996424,,,,,,,,,,0.5,0.1,select_create,Bird_4729_Horse_2682,0.1,
429,526,reconstruction,19,721525,o7t2luzeyz852j8,633e12745ad6680bd85cd356,0,11301.100000023842,,,,,,,,,,0.5000000000000001,0.1,select_create,Airplane_7428_Dog_5504,0.1,
430,527,reconstruction,20,734660,o7t2luzeyz852j8,633e12745ad6680bd85cd356,0,13131.899999976158,,,,,,,,,,0.5000000000000001,0.1,select_create,Automobile_8811_Horse_3332,0.1,
431,528,reconstruction,21,778917,o7t2luzeyz852j8,633e12745ad6680bd85cd356,0,44255.29999995232,,,,,,,,,,0.5,0.1,select_create,Automobile_5366_Frog_6330,0.1,
432,529,reconstruction,22,795878,o7t2luzeyz852j8,633e12745ad6680bd85cd356,0,16958.30000001192,,,,,,,,,,0.5000000000000001,0.1,select_create,Automobile_9535_Ship_7765,0.1,
433,530,reconstruction,23,852629,o7t2luzeyz852j8,633e12745ad6680bd85cd356,0,56749.60000002384,,,,,,,,,,0.5,0.1,select_create,Cat_650_Horse_4951,0.1,
434,531,reconstruction,24,900094,o7t2luzeyz852j8,633e12745ad6680bd85cd356,0,47461.80000001192,,,,,,,,,,0.5,0.1,select_create,Cat_1593_Horse_1201,0.1,
435,532,reconstruction,25,911643,o7t2luzeyz852j8,633e12745ad6680bd85cd356,0,11547.5,,,,,,,,,,0.5000000000000001,0.1,select_create,Cat_5817_Ship_909,0.1,
436,533,reconstruction,26,926897,o7t2luzeyz852j8,633e12745ad6680bd85cd356,0,15251.299999952316,,,,,,,,,,0.5000000000000001,0.1,select_create,Cat_6596_Ship_6975,0.1,
437,534,reconstruction,27,940493,o7t2luzeyz852j8,633e12745ad6680bd85cd356,0,13594.599999964235,,,,,,,,,,0.5,0.1,select_create,Automobile_2773_Deer_4985,0.1,
438,535,reconstruction,28,954779,o7t2luzeyz852j8,633e12745ad6680bd85cd356,0,14283.0,,,,,,,,,,0.5,0.1,select_create,Bird_7104_Truck_9692,0.1,
439,536,reconstruction,29,967193,o7t2luzeyz852j8,633e12745ad6680bd85cd356,0,12411.599999964235,,,,,,,,,,0.5000000000000001,0.1,select_create,Airplane_2535_Horse_4332,0.1,
440,537,reconstruction,30,1002963,o7t2luzeyz852j8,633e12745ad6680bd85cd356,0,35768.5,,,,,,,,,,0.6000000000000001,0.1,select_create,Airplane_9354_Automobile_7484,0.1,
441,538,reconstruction,31,1039774,o7t2luzeyz852j8,633e12745ad6680bd85cd356,0,36808.10000002384,,,,,,,,,,0.5000000000000001,0.1,select_create,Cat_8739_Frog_7333,0.1,
442,539,reconstruction,32,1062203,o7t2luzeyz852j8,633e12745ad6680bd85cd356,0,22426.700000047684,,,,,,,,,,0.5,0.1,select_create,Airplane_847_Horse_9554,0.1,
443,540,reconstruction,33,1090472,o7t2luzeyz852j8,633e12745ad6680bd85cd356,0,28266.30000001192,,,,,,,,,,0.4,0.1,select_create,Automobile_3565_Dog_3849,0.1,
444,541,reconstruction,34,1141056,o7t2luzeyz852j8,633e12745ad6680bd85cd356,0,50582.0,,,,,,,,,,0.5,0.1,select_create,Frog_3588_Ship_404,0.1,
445,542,reconstruction,35,1164294,o7t2luzeyz852j8,633e12745ad6680bd85cd356,0,23234.60000002384,,,,,,,,,,0.7000000000000001,0.1,select_create,Airplane_4792_Frog_8881,0.1,
446,543,reconstruction,36,1192810,o7t2luzeyz852j8,633e12745ad6680bd85cd356,0,28514.19999998808,,,,,,,,,,0.4000000000000001,0.1,rerun_select_create,Automobile_3066_Ship_959,0.1,
447,544,reconstruction,37,1214736,o7t2luzeyz852j8,633e12745ad6680bd85cd356,0,21923.80000001192,,,,,,,,,,0.5,0.1,rerun_select_create,Deer_583_Horse_6667,0.1,
448,552,reconstruction,6,203041,1lko0orul4tk1al,633e12745ad6680bd85cd356,4,36812.5,,,,,,,,,,1.0,0.9,select_create,Deer_9711_Horse_3187,0.9,
449,553,reconstruction,7,227927,1lko0orul4tk1al,633e12745ad6680bd85cd356,4,24881.89999999851,,,,,,,,,,0.8,0.9,select_create,Bird_2383_Dog_9098,0.9,
450,554,reconstruction,8,236781,1lko0orul4tk1al,633e12745ad6680bd85cd356,4,8849.70000000298,,,,,,,,,,0.4000000000000001,0.9,select_create,Automobile_947_Cat_4760,0.9,
451,555,reconstruction,9,263422,1lko0orul4tk1al,633e12745ad6680bd85cd356,4,26637.900000002235,,,,,,,,,,0.7000000000000001,0.9,select_create,Deer_1945_Dog_9376,0.9,
452,556,reconstruction,10,271560,1lko0orul4tk1al,633e12745ad6680bd85cd356,4,8131.900000002235,,,,,,,,,,0.5000000000000001,0.9,select_create,Bird_7821_Ship_2380,0.9,
453,557,reconstruction,11,278081,1lko0orul4tk1al,633e12745ad6680bd85cd356,4,6516.199999999255,,,,,,,,,,0.6000000000000001,0.9,select_create,Cat_4346_Truck_4932,0.9,
454,558,reconstruction,12,286915,1lko0orul4tk1al,633e12745ad6680bd85cd356,4,8831.0,,,,,,,,,,0.6000000000000001,0.9,select_create,Deer_8086_Truck_4952,0.9,
455,559,reconstruction,13,297945,1lko0orul4tk1al,633e12745ad6680bd85cd356,4,11026.599999997765,,,,,,,,,,0.4000000000000001,0.9,select_create,Airplane_4824_Truck_4719,0.9,
456,560,reconstruction,14,309517,1lko0orul4tk1al,633e12745ad6680bd85cd356,4,11576.300000000743,,,,,,,,,,0.6000000000000001,0.9,select_create,Airplane_74_Dog_3610,0.9,
457,561,reconstruction,15,318243,1lko0orul4tk1al,633e12745ad6680bd85cd356,4,8721.89999999851,,,,,,,,,,0.6000000000000001,0.9,select_create,Airplane_1719_Automobile_4425,0.9,
458,562,reconstruction,16,327541,1lko0orul4tk1al,633e12745ad6680bd85cd356,4,9294.199999999257,,,,,,,,,,0.6000000000000001,0.9,select_create,Automobile_2712_Truck_2433,0.9,
459,563,reconstruction,17,849590,1lko0orul4tk1al,633e12745ad6680bd85cd356,4,522037.19999999925,,,,,,,,,,0.6000000000000001,0.9,select_create,Ship_8441_Truck_5521,0.9,
460,564,reconstruction,18,854961,1lko0orul4tk1al,633e12745ad6680bd85cd356,4,5367.29999999702,,,,,,,,,,0.6000000000000001,0.9,select_create,Automobile_366_Dog_8115,0.9,
461,565,reconstruction,19,859970,1lko0orul4tk1al,633e12745ad6680bd85cd356,4,5006.10000000149,,,,,,,,,,0.6000000000000001,0.9,select_create,Automobile_3370_Horse_2734,0.9,
462,566,reconstruction,20,868103,1lko0orul4tk1al,633e12745ad6680bd85cd356,4,8129.300000000745,,,,,,,,,,0.5000000000000001,0.9,select_create,Bird_3934_Dog_6890,0.9,
463,567,reconstruction,21,873300,1lko0orul4tk1al,633e12745ad6680bd85cd356,4,5193.5,,,,,,,,,,0.5000000000000001,0.9,select_create,Cat_3572_Dog_6564,0.9,
464,568,reconstruction,22,879224,1lko0orul4tk1al,633e12745ad6680bd85cd356,4,5919.89999999851,,,,,,,,,,0.5000000000000001,0.9,select_create,Airplane_4040_Bird_2097,0.9,
465,569,reconstruction,23,889328,1lko0orul4tk1al,633e12745ad6680bd85cd356,4,10099.400000002235,,,,,,,,,,0.5000000000000001,0.9,select_create,Dog_478_Truck_9099,0.9,
466,570,reconstruction,24,892960,1lko0orul4tk1al,633e12745ad6680bd85cd356,4,3629.300000000745,,,,,,,,,,0.6000000000000001,0.9,select_create,Airplane_8909_Dog_1793,0.9,
467,571,reconstruction,25,897408,1lko0orul4tk1al,633e12745ad6680bd85cd356,4,4444.699999999255,,,,,,,,,,0.5000000000000001,0.9,select_create,Automobile_4549_Cat_1377,0.9,
468,572,reconstruction,26,906266,1lko0orul4tk1al,633e12745ad6680bd85cd356,4,8855.900000002235,,,,,,,,,,0.5000000000000001,0.9,select_create,Cat_4652_Truck_4550,0.9,
469,573,reconstruction,27,911301,1lko0orul4tk1al,633e12745ad6680bd85cd356,4,5030.89999999851,,,,,,,,,,0.5000000000000001,0.9,select_create,Ship_3357_Truck_5958,0.9,
470,574,reconstruction,28,914603,1lko0orul4tk1al,633e12745ad6680bd85cd356,4,3298.5,,,,,,,,,,0.6000000000000001,0.9,select_create,Bird_6145_Cat_7399,0.9,
471,575,reconstruction,29,927629,1lko0orul4tk1al,633e12745ad6680bd85cd356,4,13022.400000002235,,,,,,,,,,0.5000000000000001,0.9,select_create,Cat_78_Deer_1015,0.9,
472,576,reconstruction,30,935923,1lko0orul4tk1al,633e12745ad6680bd85cd356,4,8290.5,,,,,,,,,,0.4000000000000001,0.9,select_create,Ship_337_Truck_2305,0.9,
473,577,reconstruction,31,940901,1lko0orul4tk1al,633e12745ad6680bd85cd356,4,4975.0,,,,,,,,,,0.5000000000000001,0.9,select_create,Automobile_2484_Truck_1697,0.9,
474,578,reconstruction,32,947099,1lko0orul4tk1al,633e12745ad6680bd85cd356,4,6195.099999997765,,,,,,,,,,0.5000000000000001,0.9,select_create,Automobile_3553_Horse_7751,0.9,
475,579,reconstruction,33,950812,1lko0orul4tk1al,633e12745ad6680bd85cd356,4,3710.199999999255,,,,,,,,,,0.5000000000000001,0.9,select_create,Dog_3748_Horse_5690,0.9,
476,580,reconstruction,34,956473,1lko0orul4tk1al,633e12745ad6680bd85cd356,4,5657.20000000298,,,,,,,,,,0.4000000000000001,0.9,select_create,Bird_4873_Deer_4677,0.9,
477,581,reconstruction,35,963461,1lko0orul4tk1al,633e12745ad6680bd85cd356,4,6985.400000002235,,,,,,,,,,0.8,0.9,select_create,Airplane_4216_Horse_6266,0.9,
478,582,reconstruction,36,969390,1lko0orul4tk1al,633e12745ad6680bd85cd356,4,5926.699999999255,,,,,,,,,,0.6000000000000001,0.9,rerun_select_create,Cat_4346_Truck_4932,0.9,
479,583,reconstruction,37,974451,1lko0orul4tk1al,633e12745ad6680bd85cd356,4,5057.10000000149,,,,,,,,,,0.4000000000000001,0.9,rerun_select_create,Automobile_2712_Truck_2433,0.9,
480,591,reconstruction,6,115684,uzhcj5fm5jvsd4p,633e12745ad6680bd85cd356,0,31485.0,,,,,,,,,,0.3,0.1,select_create,Bird_1723_Deer_7654,0.1,
481,592,reconstruction,7,127352,uzhcj5fm5jvsd4p,633e12745ad6680bd85cd356,0,11666.0,,,,,,,,,,0.6000000000000001,0.1,select_create,Deer_583_Horse_6667,0.1,
482,593,reconstruction,8,135907,uzhcj5fm5jvsd4p,633e12745ad6680bd85cd356,0,8554.0,,,,,,,,,,0.5,0.1,select_create,Airplane_7428_Dog_5504,0.1,
483,594,reconstruction,9,148731,uzhcj5fm5jvsd4p,633e12745ad6680bd85cd356,0,12824.0,,,,,,,,,,0.4,0.1,select_create,Automobile_3066_Ship_959,0.1,
484,595,reconstruction,10,159844,uzhcj5fm5jvsd4p,633e12745ad6680bd85cd356,0,11112.0,,,,,,,,,,0.7000000000000001,0.1,select_create,Bird_6519_Cat_1445,0.1,
485,596,reconstruction,11,166778,uzhcj5fm5jvsd4p,633e12745ad6680bd85cd356,0,6933.0,,,,,,,,,,0.5,0.1,select_create,Frog_3588_Ship_404,0.1,
486,597,reconstruction,12,177135,uzhcj5fm5jvsd4p,633e12745ad6680bd85cd356,0,10356.0,,,,,,,,,,0.6000000000000001,0.1,select_create,Cat_8739_Frog_7333,0.1,
487,598,reconstruction,13,193552,uzhcj5fm5jvsd4p,633e12745ad6680bd85cd356,0,16416.0,,,,,,,,,,0.6,0.1,select_create,Deer_9393_Truck_4588,0.1,
488,599,reconstruction,14,202484,uzhcj5fm5jvsd4p,633e12745ad6680bd85cd356,0,8931.0,,,,,,,,,,0.4000000000000001,0.1,select_create,Automobile_9535_Ship_7765,0.1,
489,600,reconstruction,15,210882,uzhcj5fm5jvsd4p,633e12745ad6680bd85cd356,0,8397.0,,,,,,,,,,0.6,0.1,select_create,Cat_5817_Ship_909,0.1,
490,601,reconstruction,16,233979,uzhcj5fm5jvsd4p,633e12745ad6680bd85cd356,0,23096.0,,,,,,,,,,0.7000000000000001,0.1,select_create,Cat_6647_Horse_7703,0.1,
491,602,reconstruction,17,238724,uzhcj5fm5jvsd4p,633e12745ad6680bd85cd356,0,4744.0,,,,,,,,,,0.5,0.1,select_create,Automobile_2773_Deer_4985,0.1,
492,603,reconstruction,18,245092,uzhcj5fm5jvsd4p,633e12745ad6680bd85cd356,0,6367.0,,,,,,,,,,0.7,0.1,select_create,Automobile_5366_Frog_6330,0.1,
493,604,reconstruction,19,253705,uzhcj5fm5jvsd4p,633e12745ad6680bd85cd356,0,8613.0,,,,,,,,,,0.5,0.1,select_create,Automobile_8811_Horse_3332,0.1,
494,605,reconstruction,20,260246,uzhcj5fm5jvsd4p,633e12745ad6680bd85cd356,0,6541.0,,,,,,,,,,0.5,0.1,select_create,Airplane_2535_Horse_4332,0.1,
495,606,reconstruction,21,266103,uzhcj5fm5jvsd4p,633e12745ad6680bd85cd356,0,5856.0,,,,,,,,,,0.4,0.1,select_create,Automobile_5079_Deer_5654,0.1,
496,607,reconstruction,22,276050,uzhcj5fm5jvsd4p,633e12745ad6680bd85cd356,0,9947.0,,,,,,,,,,0.7,0.1,select_create,Cat_7496_Ship_260,0.1,
497,608,reconstruction,23,282951,uzhcj5fm5jvsd4p,633e12745ad6680bd85cd356,0,6901.0,,,,,,,,,,0.6,0.1,select_create,Airplane_4792_Frog_8881,0.1,
498,609,reconstruction,24,287609,uzhcj5fm5jvsd4p,633e12745ad6680bd85cd356,0,4657.0,,,,,,,,,,0.6,0.1,select_create,Automobile_3565_Dog_3849,0.1,
499,610,reconstruction,25,293322,uzhcj5fm5jvsd4p,633e12745ad6680bd85cd356,0,5712.0,,,,,,,,,,0.5,0.1,select_create,Airplane_9354_Automobile_7484,0.1,
500,611,reconstruction,26,299142,uzhcj5fm5jvsd4p,633e12745ad6680bd85cd356,0,5819.0,,,,,,,,,,0.6,0.1,select_create,Cat_1593_Horse_1201,0.1,
501,612,reconstruction,27,304030,uzhcj5fm5jvsd4p,633e12745ad6680bd85cd356,0,4887.0,,,,,,,,,,0.5,0.1,select_create,Automobile_2504_Dog_9098,0.1,
502,613,reconstruction,28,314151,uzhcj5fm5jvsd4p,633e12745ad6680bd85cd356,0,10120.0,,,,,,,,,,0.7,0.1,select_create,Cat_650_Horse_4951,0.1,
503,614,reconstruction,29,319276,uzhcj5fm5jvsd4p,633e12745ad6680bd85cd356,0,5123.0,,,,,,,,,,0.7,0.1,select_create,Bird_7104_Truck_9692,0.1,
504,615,reconstruction,30,331077,uzhcj5fm5jvsd4p,633e12745ad6680bd85cd356,0,11800.0,,,,,,,,,,0.4000000000000001,0.1,select_create,Airplane_6491_Frog_8781,0.1,
505,616,reconstruction,31,338974,uzhcj5fm5jvsd4p,633e12745ad6680bd85cd356,0,7896.0,,,,,,,,,,0.6,0.1,select_create,Bird_4729_Horse_2682,0.1,
506,617,reconstruction,32,346802,uzhcj5fm5jvsd4p,633e12745ad6680bd85cd356,0,7827.0,,,,,,,,,,0.5,0.1,select_create,Airplane_847_Horse_9554,0.1,
507,618,reconstruction,33,359245,uzhcj5fm5jvsd4p,633e12745ad6680bd85cd356,0,12442.0,,,,,,,,,,0.5,0.1,select_create,Deer_6753_Frog_1578,0.1,
508,619,reconstruction,34,365615,uzhcj5fm5jvsd4p,633e12745ad6680bd85cd356,0,6369.0,,,,,,,,,,0.5,0.1,select_create,Cat_6596_Ship_6975,0.1,
509,620,reconstruction,35,369327,uzhcj5fm5jvsd4p,633e12745ad6680bd85cd356,0,3712.0,,,,,,,,,,0.6,0.1,select_create,Automobile_9197_Deer_8914,0.1,
510,621,reconstruction,36,374687,uzhcj5fm5jvsd4p,633e12745ad6680bd85cd356,0,5358.0,,,,,,,,,,0.6,0.1,rerun_select_create,Frog_3588_Ship_404,0.1,
511,622,reconstruction,37,380815,uzhcj5fm5jvsd4p,633e12745ad6680bd85cd356,0,6127.0,,,,,,,,,,0.7000000000000001,0.1,rerun_select_create,Cat_6647_Horse_7703,0.1,
512,630,reconstruction,6,285524,2jz1hwj27w0juvc,633e12745ad6680bd85cd356,5,39624.89999999851,,,,,,,,,,0.5000000000000001,0.1,select_create,Ship_6691_Truck_5674,0.1,
513,631,reconstruction,7,295800,2jz1hwj27w0juvc,633e12745ad6680bd85cd356,5,10272.60000000149,,,,,,,,,,0.5000000000000001,0.1,select_create,Airplane_4270_Deer_849,0.1,
514,632,reconstruction,8,306269,2jz1hwj27w0juvc,633e12745ad6680bd85cd356,5,10465.19999999553,,,,,,,,,,0.4000000000000001,0.1,select_create,Airplane_6057_Deer_9189,0.1,
515,633,reconstruction,9,319453,2jz1hwj27w0juvc,633e12745ad6680bd85cd356,5,13178.59999999404,,,,,,,,,,0.3,0.1,select_create,Airplane_8812_Bird_3076,0.1,
516,634,reconstruction,10,332814,2jz1hwj27w0juvc,633e12745ad6680bd85cd356,5,13356.5,,,,,,,,,,0.7000000000000001,0.1,select_create,Bird_1043_Horse_5464,0.1,
517,635,reconstruction,11,352512,2jz1hwj27w0juvc,633e12745ad6680bd85cd356,5,19695.29999999702,,,,,,,,,,0.3,0.1,select_create,Dog_1818_Truck_5938,0.1,
518,636,reconstruction,12,369655,2jz1hwj27w0juvc,633e12745ad6680bd85cd356,5,17139.30000000447,,,,,,,,,,0.4,0.1,select_create,Bird_354_Deer_6507,0.1,
519,637,reconstruction,13,384037,2jz1hwj27w0juvc,633e12745ad6680bd85cd356,5,14378.5,,,,,,,,,,0.5,0.1,select_create,Airplane_2589_Cat_6202,0.1,
520,638,reconstruction,14,410114,2jz1hwj27w0juvc,633e12745ad6680bd85cd356,5,26074.09999999404,,,,,,,,,,0.8,0.1,select_create,Airplane_6069_Horse_578,0.1,
521,639,reconstruction,15,421997,2jz1hwj27w0juvc,633e12745ad6680bd85cd356,5,11878.60000000149,,,,,,,,,,0.5000000000000001,0.1,select_create,Cat_2175_Dog_8788,0.1,
522,640,reconstruction,16,435377,2jz1hwj27w0juvc,633e12745ad6680bd85cd356,5,13375.70000000298,,,,,,,,,,0.6000000000000001,0.1,select_create,Automobile_7570_Cat_4094,0.1,
523,641,reconstruction,17,474048,2jz1hwj27w0juvc,633e12745ad6680bd85cd356,5,38669.10000000149,,,,,,,,,,0.7000000000000001,0.1,select_create,Bird_7508_Frog_7690,0.1,
524,642,reconstruction,18,488723,2jz1hwj27w0juvc,633e12745ad6680bd85cd356,5,14670.5,,,,,,,,,,0.4,0.1,select_create,Automobile_1882_Deer_4227,0.1,
525,643,reconstruction,19,501652,2jz1hwj27w0juvc,633e12745ad6680bd85cd356,5,12924.89999999851,,,,,,,,,,0.3,0.1,select_create,Frog_2865_Horse_7935,0.1,
526,644,reconstruction,20,517088,2jz1hwj27w0juvc,633e12745ad6680bd85cd356,5,15432.0,,,,,,,,,,0.4000000000000001,0.1,select_create,Horse_5558_Ship_7706,0.1,
527,645,reconstruction,21,531510,2jz1hwj27w0juvc,633e12745ad6680bd85cd356,5,14417.0,,,,,,,,,,0.3000000000000001,0.1,select_create,Cat_9310_Ship_9491,0.1,
528,646,reconstruction,22,553340,2jz1hwj27w0juvc,633e12745ad6680bd85cd356,5,21825.89999999851,,,,,,,,,,0.4,0.1,select_create,Airplane_6491_Frog_8781,0.1,
529,647,reconstruction,23,579139,2jz1hwj27w0juvc,633e12745ad6680bd85cd356,5,25796.5,,,,,,,,,,0.6000000000000001,0.1,select_create,Horse_6044_Ship_7600,0.1,
530,648,reconstruction,24,587742,2jz1hwj27w0juvc,633e12745ad6680bd85cd356,5,8599.0,,,,,,,,,,0.5000000000000001,0.1,select_create,Cat_6705_Frog_783,0.1,
531,649,reconstruction,25,600648,2jz1hwj27w0juvc,633e12745ad6680bd85cd356,5,12902.70000000298,,,,,,,,,,0.3000000000000001,0.1,select_create,Cat_2285_Frog_5513,0.1,
532,650,reconstruction,26,610796,2jz1hwj27w0juvc,633e12745ad6680bd85cd356,5,10142.80000000447,,,,,,,,,,0.7,0.1,select_create,Airplane_2200_Ship_1281,0.1,
533,651,reconstruction,27,621472,2jz1hwj27w0juvc,633e12745ad6680bd85cd356,5,10671.79999999702,,,,,,,,,,0.5,0.1,select_create,Automobile_2813_Truck_8727,0.1,
534,652,reconstruction,28,632766,2jz1hwj27w0juvc,633e12745ad6680bd85cd356,5,11289.5,,,,,,,,,,0.3,0.1,select_create,Bird_5819_Dog_8776,0.1,
535,653,reconstruction,29,640177,2jz1hwj27w0juvc,633e12745ad6680bd85cd356,5,7407.39999999851,,,,,,,,,,0.5,0.1,select_create,Dog_2316_Horse_7086,0.1,
536,654,reconstruction,30,649097,2jz1hwj27w0juvc,633e12745ad6680bd85cd356,5,8917.20000000298,,,,,,,,,,0.5,0.1,select_create,Cat_2422_Truck_6579,0.1,
537,655,reconstruction,31,660885,2jz1hwj27w0juvc,633e12745ad6680bd85cd356,5,11784.60000000149,,,,,,,,,,0.4000000000000001,0.1,select_create,Deer_4114_Horse_1119,0.1,
538,656,reconstruction,32,674365,2jz1hwj27w0juvc,633e12745ad6680bd85cd356,5,13476.29999999702,,,,,,,,,,0.7000000000000001,0.1,select_create,Horse_5096_Truck_9312,0.1,
539,657,reconstruction,33,685866,2jz1hwj27w0juvc,633e12745ad6680bd85cd356,5,11496.89999999851,,,,,,,,,,0.7000000000000001,0.1,select_create,Frog_4161_Truck_1439,0.1,
540,658,reconstruction,34,694739,2jz1hwj27w0juvc,633e12745ad6680bd85cd356,5,8868.79999999702,,,,,,,,,,0.7,0.1,select_create,Airplane_2628_Frog_9653,0.1,
541,659,reconstruction,35,708662,2jz1hwj27w0juvc,633e12745ad6680bd85cd356,5,13918.39999999851,,,,,,,,,,0.4000000000000001,0.1,select_create,Airplane_258_Truck_744,0.1,
542,660,reconstruction,36,721319,2jz1hwj27w0juvc,633e12745ad6680bd85cd356,5,12652.5,,,,,,,,,,0.4,0.1,rerun_select_create,Dog_1818_Truck_5938,0.1,
543,661,reconstruction,37,727853,2jz1hwj27w0juvc,633e12745ad6680bd85cd356,5,6529.89999999851,,,,,,,,,,0.5,0.1,rerun_select_create,Automobile_7570_Cat_4094,0.1,
544,669,reconstruction,6,167915,1n579ssfok8cwwm,633e12745ad6680bd85cd356,4,38840.69999992848,,,,,,,,,,0.6000000000000001,0.1,select_create,Ship_8441_Truck_5521,0.1,
545,670,reconstruction,7,196143,1n579ssfok8cwwm,633e12745ad6680bd85cd356,4,28221.099999904636,,,,,,,,,,0.6000000000000001,0.1,select_create,Cat_4652_Truck_4550,0.1,
546,671,reconstruction,8,208077,1n579ssfok8cwwm,633e12745ad6680bd85cd356,4,11929.300000071526,,,,,,,,,,0.3,0.1,select_create,Airplane_4040_Bird_2097,0.1,
547,672,reconstruction,9,222189,1n579ssfok8cwwm,633e12745ad6680bd85cd356,4,14106.399999976158,,,,,,,,,,0.5,0.1,select_create,Airplane_4824_Truck_4719,0.1,
548,673,reconstruction,10,229619,1n579ssfok8cwwm,633e12745ad6680bd85cd356,4,7424.900000095367,,,,,,,,,,0.5,0.1,select_create,Bird_3934_Dog_6890,0.1,
549,674,reconstruction,11,246892,1n579ssfok8cwwm,633e12745ad6680bd85cd356,4,17268.100000023842,,,,,,,,,,0.4,0.1,select_create,Automobile_2484_Truck_1697,0.1,
550,675,reconstruction,12,276259,1n579ssfok8cwwm,633e12745ad6680bd85cd356,4,29362.89999997616,,,,,,,,,,0.6,0.1,select_create,Automobile_2712_Truck_2433,0.1,
551,676,reconstruction,13,286840,1n579ssfok8cwwm,633e12745ad6680bd85cd356,4,10576.5,,,,,,,,,,0.6,0.1,select_create,Automobile_366_Dog_8115,0.1,
552,677,reconstruction,14,291090,1n579ssfok8cwwm,633e12745ad6680bd85cd356,4,4245.699999928474,,,,,,,,,,0.5,0.1,select_create,Deer_9711_Horse_3187,0.1,
553,678,reconstruction,15,300847,1n579ssfok8cwwm,633e12745ad6680bd85cd356,4,9752.199999928474,,,,,,,,,,0.6,0.1,select_create,Deer_8086_Truck_4952,0.1,
554,679,reconstruction,16,309415,1n579ssfok8cwwm,633e12745ad6680bd85cd356,4,8564.200000047684,,,,,,,,,,0.3,0.1,select_create,Bird_4873_Deer_4677,0.1,
555,680,reconstruction,17,324863,1n579ssfok8cwwm,633e12745ad6680bd85cd356,4,15442.699999928474,,,,,,,,,,0.4,0.1,select_create,Cat_78_Deer_1015,0.1,
556,681,reconstruction,18,338430,1n579ssfok8cwwm,633e12745ad6680bd85cd356,4,13562.800000071526,,,,,,,,,,0.3,0.1,select_create,Bird_7821_Ship_2380,0.1,
557,682,reconstruction,19,344885,1n579ssfok8cwwm,633e12745ad6680bd85cd356,4,6449.800000071526,,,,,,,,,,0.5,0.1,select_create,Cat_3572_Dog_6564,0.1,
558,683,reconstruction,20,358039,1n579ssfok8cwwm,633e12745ad6680bd85cd356,4,13151.799999952316,,,,,,,,,,0.6,0.1,select_create,Ship_3357_Truck_5958,0.1,
559,684,reconstruction,21,387859,1n579ssfok8cwwm,633e12745ad6680bd85cd356,4,29818.39999997616,,,,,,,,,,0.4,0.1,select_create,Automobile_3553_Horse_7751,0.1,
560,685,reconstruction,22,400061,1n579ssfok8cwwm,633e12745ad6680bd85cd356,4,12197.600000023842,,,,,,,,,,0.7,0.1,select_create,Airplane_1719_Automobile_4425,0.1,
561,686,reconstruction,23,414204,1n579ssfok8cwwm,633e12745ad6680bd85cd356,4,14137.799999952316,,,,,,,,,,0.4,0.1,select_create,Dog_478_Truck_9099,0.1,
562,687,reconstruction,24,422635,1n579ssfok8cwwm,633e12745ad6680bd85cd356,4,8424.799999952316,,,,,,,,,,0.6,0.1,select_create,Airplane_74_Dog_3610,0.1,
563,688,reconstruction,25,430843,1n579ssfok8cwwm,633e12745ad6680bd85cd356,4,8205.100000023842,,,,,,,,,,0.6,0.1,select_create,Bird_6145_Cat_7399,0.1,
564,689,reconstruction,26,435273,1n579ssfok8cwwm,633e12745ad6680bd85cd356,4,4425.899999976158,,,,,,,,,,0.5,0.1,select_create,Deer_1945_Dog_9376,0.1,
565,690,reconstruction,27,440003,1n579ssfok8cwwm,633e12745ad6680bd85cd356,4,4726.799999952316,,,,,,,,,,0.4,0.1,select_create,Automobile_947_Cat_4760,0.1,
566,691,reconstruction,28,444930,1n579ssfok8cwwm,633e12745ad6680bd85cd356,4,4922.199999928474,,,,,,,,,,0.4,0.1,select_create,Automobile_4549_Cat_1377,0.1,
567,692,reconstruction,29,450379,1n579ssfok8cwwm,633e12745ad6680bd85cd356,4,5446.600000023842,,,,,,,,,,0.4,0.1,select_create,Airplane_8909_Dog_1793,0.1,
568,693,reconstruction,30,458172,1n579ssfok8cwwm,633e12745ad6680bd85cd356,4,7790.200000047684,,,,,,,,,,0.5,0.1,select_create,Ship_337_Truck_2305,0.1,
569,694,reconstruction,31,467877,1n579ssfok8cwwm,633e12745ad6680bd85cd356,4,9700.400000095367,,,,,,,,,,0.6000000000000001,0.1,select_create,Bird_2383_Dog_9098,0.1,
570,695,reconstruction,32,471635,1n579ssfok8cwwm,633e12745ad6680bd85cd356,4,3753.899999976158,,,,,,,,,,0.4,0.1,select_create,Dog_3748_Horse_5690,0.1,
571,696,reconstruction,33,474953,1n579ssfok8cwwm,633e12745ad6680bd85cd356,4,3314.899999976158,,,,,,,,,,0.6,0.1,select_create,Airplane_4216_Horse_6266,0.1,
572,697,reconstruction,34,483883,1n579ssfok8cwwm,633e12745ad6680bd85cd356,4,8923.5,,,,,,,,,,0.6000000000000001,0.1,select_create,Cat_4346_Truck_4932,0.1,
573,698,reconstruction,35,487319,1n579ssfok8cwwm,633e12745ad6680bd85cd356,4,3432.0,,,,,,,,,,0.4,0.1,select_create,Automobile_3370_Horse_2734,0.1,
574,699,reconstruction,36,491642,1n579ssfok8cwwm,633e12745ad6680bd85cd356,4,4319.100000023842,,,,,,,,,,0.4,0.1,rerun_select_create,Automobile_2484_Truck_1697,0.1,
575,700,reconstruction,37,494900,1n579ssfok8cwwm,633e12745ad6680bd85cd356,4,3253.399999976158,,,,,,,,,,0.4,0.1,rerun_select_create,Bird_4873_Deer_4677,0.1,
576,708,reconstruction,6,252181,efbkavewoqgxtr4,633e12745ad6680bd85cd356,6,63284.40000000596,,,,,,,,,,0.2,0.1,select_create,Cat_8778_Dog_8316,0.1,
577,709,reconstruction,7,272439,efbkavewoqgxtr4,633e12745ad6680bd85cd356,6,20247.59999999404,,,,,,,,,,0.5000000000000001,0.1,select_create,Deer_5957_Horse_5314,0.1,
578,710,reconstruction,8,283248,efbkavewoqgxtr4,633e12745ad6680bd85cd356,6,10798.90000000596,,,,,,,,,,0.5000000000000001,0.1,select_create,Frog_3400_Ship_8441,0.1,
579,711,reconstruction,9,297431,efbkavewoqgxtr4,633e12745ad6680bd85cd356,6,14174.20000001788,,,,,,,,,,0.4,0.1,select_create,Bird_7831_Ship_2196,0.1,
580,712,reconstruction,10,308722,efbkavewoqgxtr4,633e12745ad6680bd85cd356,6,11281.70000001788,,,,,,,,,,0.5000000000000001,0.1,select_create,Frog_3588_Ship_404,0.1,
581,713,reconstruction,11,316339,efbkavewoqgxtr4,633e12745ad6680bd85cd356,6,7607.5,,,,,,,,,,0.4,0.1,select_create,Airplane_8812_Bird_3076,0.1,
582,714,reconstruction,12,320672,efbkavewoqgxtr4,633e12745ad6680bd85cd356,6,4324.299999982119,,,,,,,,,,0.3,0.1,select_create,Airplane_4591_Dog_6199,0.1,
583,715,reconstruction,13,325854,efbkavewoqgxtr4,633e12745ad6680bd85cd356,6,5174.4000000059605,,,,,,,,,,0.6,0.1,select_create,Frog_3160_Truck_7113,0.1,
584,716,reconstruction,14,332978,efbkavewoqgxtr4,633e12745ad6680bd85cd356,6,7115.699999988079,,,,,,,,,,0.5,0.1,select_create,Dog_6297_Frog_9150,0.1,
585,717,reconstruction,15,344713,efbkavewoqgxtr4,633e12745ad6680bd85cd356,6,11725.59999999404,,,,,,,,,,0.3,0.1,select_create,Automobile_6464_Dog_6904,0.1,
586,718,reconstruction,16,353166,efbkavewoqgxtr4,633e12745ad6680bd85cd356,6,8444.299999982119,,,,,,,,,,0.4,0.1,select_create,Automobile_8584_Bird_1955,0.1,
587,719,reconstruction,17,362874,efbkavewoqgxtr4,633e12745ad6680bd85cd356,6,9697.09999999404,,,,,,,,,,0.3,0.1,select_create,Bird_2746_Ship_5257,0.1,
588,720,reconstruction,18,371657,efbkavewoqgxtr4,633e12745ad6680bd85cd356,6,8772.90000000596,,,,,,,,,,0.7,0.1,select_create,Cat_4687_Truck_5335,0.1,
589,721,reconstruction,19,381317,efbkavewoqgxtr4,633e12745ad6680bd85cd356,6,9650.80000001192,,,,,,,,,,0.6,0.1,select_create,Bird_497_Ship_4539,0.1,
590,722,reconstruction,20,386646,efbkavewoqgxtr4,633e12745ad6680bd85cd356,6,5319.5,,,,,,,,,,0.4,0.1,select_create,Horse_3327_Ship_9834,0.1,
591,723,reconstruction,21,389836,efbkavewoqgxtr4,633e12745ad6680bd85cd356,6,3180.7000000178814,,,,,,,,,,0.3,0.1,select_create,Automobile_4128_Cat_205,0.1,
592,724,reconstruction,22,397104,efbkavewoqgxtr4,633e12745ad6680bd85cd356,6,7255.899999976158,,,,,,,,,,0.7,0.1,select_create,Frog_3349_Horse_1560,0.1,
593,725,reconstruction,23,401663,efbkavewoqgxtr4,633e12745ad6680bd85cd356,6,4550.59999999404,,,,,,,,,,0.3,0.1,select_create,Airplane_6648_Deer_6617,0.1,
594,726,reconstruction,24,409923,efbkavewoqgxtr4,633e12745ad6680bd85cd356,6,8252.09999999404,,,,,,,,,,0.5000000000000001,0.1,select_create,Airplane_9499_Cat_6827,0.1,
595,727,reconstruction,25,417859,efbkavewoqgxtr4,633e12745ad6680bd85cd356,6,7926.599999994039,,,,,,,,,,0.3,0.1,select_create,Automobile_6940_Dog_8079,0.1,
596,728,reconstruction,26,428155,efbkavewoqgxtr4,633e12745ad6680bd85cd356,6,10288.09999999404,,,,,,,,,,0.4,0.1,select_create,Airplane_3258_Truck_3141,0.1,
597,729,reconstruction,27,431875,efbkavewoqgxtr4,633e12745ad6680bd85cd356,6,3711.0,,,,,,,,,,0.3,0.1,select_create,Automobile_4841_Deer_954,0.1,
598,730,reconstruction,28,440942,efbkavewoqgxtr4,633e12745ad6680bd85cd356,6,9058.09999999404,,,,,,,,,,0.5000000000000001,0.1,select_create,Bird_6109_Horse_8918,0.1,
599,731,reconstruction,29,496417,efbkavewoqgxtr4,633e12745ad6680bd85cd356,6,55466.60000002384,,,,,,,,,,0.5,0.1,select_create,Cat_5925_Deer_9981,0.1,
600,732,reconstruction,30,527705,efbkavewoqgxtr4,633e12745ad6680bd85cd356,6,31278.59999999404,,,,,,,,,,0.6000000000000001,0.1,select_create,Bird_5261_Truck_2184,0.1,
601,733,reconstruction,31,533038,efbkavewoqgxtr4,633e12745ad6680bd85cd356,6,5324.4000000059605,,,,,,,,,,0.6,0.1,select_create,Deer_3203_Ship_3821,0.1,
602,734,reconstruction,32,541597,efbkavewoqgxtr4,633e12745ad6680bd85cd356,6,8550.100000023842,,,,,,,,,,0.6,0.1,select_create,Airplane_9515_Horse_2888,0.1,
603,735,reconstruction,33,549697,efbkavewoqgxtr4,633e12745ad6680bd85cd356,6,8092.5,,,,,,,,,,0.4,0.1,select_create,Dog_9939_Ship_2604,0.1,
604,736,reconstruction,34,553115,efbkavewoqgxtr4,633e12745ad6680bd85cd356,6,3408.5,,,,,,,,,,0.4,0.1,select_create,Bird_2531_Cat_7015,0.1,
605,737,reconstruction,35,559488,efbkavewoqgxtr4,633e12745ad6680bd85cd356,6,6364.5,,,,,,,,,,0.5,0.1,select_create,Cat_6102_Horse_4538,0.1,
606,738,reconstruction,36,563329,efbkavewoqgxtr4,633e12745ad6680bd85cd356,6,3832.800000011921,,,,,,,,,,0.3,0.1,rerun_select_create,Airplane_8812_Bird_3076,0.1,
607,739,reconstruction,37,571312,efbkavewoqgxtr4,633e12745ad6680bd85cd356,6,7974.90000000596,,,,,,,,,,0.6,0.1,rerun_select_create,Automobile_8584_Bird_1955,0.1,
608,747,reconstruction,6,110788,ue23n39t42x4prl,633e12745ad6680bd85cd356,1,14853.0,,,,,,,,,,0.5000000000000001,0.9,select_create,Automobile_2484_Truck_1697,0.9,
609,748,reconstruction,7,125015,ue23n39t42x4prl,633e12745ad6680bd85cd356,1,14225.0,,,,,,,,,,0.8,0.9,select_create,Cat_515_Horse_4046,0.9,
610,749,reconstruction,8,130414,ue23n39t42x4prl,633e12745ad6680bd85cd356,1,5397.0,,,,,,,,,,0.7000000000000001,0.9,select_create,Bird_2811_Truck_9303,0.9,
611,750,reconstruction,9,140062,ue23n39t42x4prl,633e12745ad6680bd85cd356,1,9647.0,,,,,,,,,,0.5000000000000001,0.9,select_create,Horse_5070_Truck_4595,0.9,
612,751,reconstruction,10,151404,ue23n39t42x4prl,633e12745ad6680bd85cd356,1,11342.0,,,,,,,,,,0.5000000000000001,0.9,select_create,Deer_3559_Horse_5541,0.9,
613,752,reconstruction,11,157936,ue23n39t42x4prl,633e12745ad6680bd85cd356,1,6530.0,,,,,,,,,,0.3000000000000001,0.9,select_create,Bird_1150_Frog_7917,0.9,
614,753,reconstruction,12,169702,ue23n39t42x4prl,633e12745ad6680bd85cd356,1,11765.0,,,,,,,,,,0.5,0.9,select_create,Frog_8792_Ship_2921,0.9,
615,754,reconstruction,13,178100,ue23n39t42x4prl,633e12745ad6680bd85cd356,1,8396.0,,,,,,,,,,0.6000000000000001,0.9,select_create,Automobile_6832_Frog_347,0.9,
616,755,reconstruction,14,205728,ue23n39t42x4prl,633e12745ad6680bd85cd356,1,27626.0,,,,,,,,,,0.6000000000000001,0.9,select_create,Airplane_9633_Bird_8756,0.9,
617,756,reconstruction,15,216292,ue23n39t42x4prl,633e12745ad6680bd85cd356,1,10563.0,,,,,,,,,,0.5000000000000001,0.9,select_create,Bird_3076_Frog_1394,0.9,
618,757,reconstruction,16,220004,ue23n39t42x4prl,633e12745ad6680bd85cd356,1,3710.0,,,,,,,,,,0.2000000000000001,0.9,select_create,Automobile_894_Ship_80,0.9,
619,758,reconstruction,17,229314,ue23n39t42x4prl,633e12745ad6680bd85cd356,1,9308.0,,,,,,,,,,0.5,0.9,select_create,Frog_5175_Truck_6963,0.9,
620,759,reconstruction,18,234937,ue23n39t42x4prl,633e12745ad6680bd85cd356,1,5622.0,,,,,,,,,,0.4000000000000001,0.9,select_create,Dog_1901_Ship_600,0.9,
621,760,reconstruction,19,239015,ue23n39t42x4prl,633e12745ad6680bd85cd356,1,4077.0,,,,,,,,,,0.3000000000000001,0.9,select_create,Bird_2774_Ship_5249,0.9,
622,761,reconstruction,20,242569,ue23n39t42x4prl,633e12745ad6680bd85cd356,1,3554.0,,,,,,,,,,0.6000000000000001,0.9,select_create,Airplane_9196_Ship_5427,0.9,
623,762,reconstruction,21,250852,ue23n39t42x4prl,633e12745ad6680bd85cd356,1,8280.0,,,,,,,,,,0.5000000000000001,0.9,select_create,Automobile_3988_Bird_7348,0.9,
624,763,reconstruction,22,273026,ue23n39t42x4prl,633e12745ad6680bd85cd356,1,22172.0,,,,,,,,,,0.7000000000000001,0.9,select_create,Airplane_2614_Bird_2566,0.9,
625,764,reconstruction,23,278518,ue23n39t42x4prl,633e12745ad6680bd85cd356,1,5491.0,,,,,,,,,,0.5,0.9,select_create,Automobile_2813_Truck_8727,0.9,
626,765,reconstruction,24,282074,ue23n39t42x4prl,633e12745ad6680bd85cd356,1,3554.0,,,,,,,,,,0.5000000000000001,0.9,select_create,Cat_7016_Dog_4860,0.9,
627,766,reconstruction,25,285017,ue23n39t42x4prl,633e12745ad6680bd85cd356,1,2942.0,,,,,,,,,,0.5000000000000001,0.9,select_create,Dog_9939_Horse_3836,0.9,
628,767,reconstruction,26,288958,ue23n39t42x4prl,633e12745ad6680bd85cd356,1,3939.0,,,,,,,,,,0.6000000000000001,0.9,select_create,Dog_148_Truck_6840,0.9,
629,768,reconstruction,27,295830,ue23n39t42x4prl,633e12745ad6680bd85cd356,1,6873.0,,,,,,,,,,0.7000000000000001,0.9,select_create,Deer_8622_Truck_1104,0.9,
630,769,reconstruction,28,299354,ue23n39t42x4prl,633e12745ad6680bd85cd356,1,3522.0,,,,,,,,,,0.4000000000000001,0.9,select_create,Airplane_6400_Deer_9858,0.9,
631,770,reconstruction,29,302924,ue23n39t42x4prl,633e12745ad6680bd85cd356,1,3569.0,,,,,,,,,,0.4000000000000001,0.9,select_create,Horse_57_Ship_2476,0.9,
632,771,reconstruction,30,305415,ue23n39t42x4prl,633e12745ad6680bd85cd356,1,2490.0,,,,,,,,,,0.5000000000000001,0.9,select_create,Horse_9444_Truck_853,0.9,
633,772,reconstruction,31,309464,ue23n39t42x4prl,633e12745ad6680bd85cd356,1,4045.0,,,,,,,,,,0.7000000000000001,0.9,select_create,Airplane_1596_Frog_3615,0.9,
634,773,reconstruction,32,312759,ue23n39t42x4prl,633e12745ad6680bd85cd356,1,3295.0,,,,,,,,,,0.5000000000000001,0.9,select_create,Cat_9722_Horse_60,0.9,
635,774,reconstruction,33,317518,ue23n39t42x4prl,633e12745ad6680bd85cd356,1,4756.0,,,,,,,,,,0.8,0.9,select_create,Automobile_2838_Horse_2062,0.9,
636,775,reconstruction,34,336676,ue23n39t42x4prl,633e12745ad6680bd85cd356,1,19156.0,,,,,,,,,,0.7000000000000001,0.9,select_create,Frog_3349_Horse_1560,0.9,
637,776,reconstruction,35,354360,ue23n39t42x4prl,633e12745ad6680bd85cd356,1,17682.0,,,,,,,,,,0.5000000000000001,0.9,select_create,Automobile_6493_Frog_8250,0.9,
638,777,reconstruction,36,358610,ue23n39t42x4prl,633e12745ad6680bd85cd356,1,4248.0,,,,,,,,,,0.4000000000000001,0.9,rerun_select_create,Bird_1150_Frog_7917,0.9,
639,778,reconstruction,37,361994,ue23n39t42x4prl,633e12745ad6680bd85cd356,1,3382.0,,,,,,,,,,0.2000000000000001,0.9,rerun_select_create,Automobile_894_Ship_80,0.9,
640,786,reconstruction,6,167386,5etl7dchbbqkwpx,633e12745ad6680bd85cd356,6,34244.699999999255,,,,,,,,,,0.4000000000000001,0.9,select_create,Automobile_6940_Dog_8079,0.9,
